"A","A1","A2","A3","B","B1","B2","B3","NewAnswers","Outcome","RatingA","RatingB","RatingX","Responses000","Responses050","Responses100","Stim1","Stim2","T1","T10","T11","T12","T13","T14","T15","T16","T2","T3","T4","T5","T6","T7","T8","T9","Trial","X","X1","X2","X3","background","block1","block2","block3","canvas_backend","clock_backend","color_backend","compensation","coordinates","count_Cond000Outcome","count_Cond000Ratings","count_Cond000Sequence","count_Cond000Stim","count_Cond050Outcome","count_Cond050Rating","count_Cond050Sequence","count_Cond050Stim","count_Cond100Outcome","count_Cond100Rating","count_Cond100Sequence","count_Cond100Stim","count_Conditions_Stimuli","count_Current_Problems","count_Donewithblock","count_Explanation","count_Introduction","count_Stimuli","count_Testphaseintro","count_To_dos","count__000","count__050","count__100","count_experiment","count_main_sequence","count_new_form_multiple_choice","count_new_form_text_display","count_new_form_text_display_1","count_new_logger","count_new_logger_1","count_new_logger_1_1","count_new_sketchpad_1","count_new_sketchpad_2","count_test_phase","count_training_phase","count_welcome","datetime","description","disable_garbage_collection","empty_column","experiment_file","experiment_path","font_bold","font_family","font_italic","font_size","font_underline","foreground","form_clicks","form_response","fullscreen","height","j","k","keyboard_backend","l","live_row","live_row__000","live_row_training_phase","locations","logfile","mouse_backend","opensesame_codename","opensesame_version","pos1","pos1X","pos1Y","pos2","pos2X","pos2Y","repeat_cycle","response","response_new_sketchpad_1","response_new_sketchpad_2","response_time","response_time_new_sketchpad_1","response_time_new_sketchpad_2","response_time_welcome","response_welcome","round_decimals","rs1","rs2","sampler_backend","sound_buf_size","sound_channels","sound_freq","sound_sample_size","start","subject_nr","subject_parity","temp","time_Cond000Outcome","time_Cond000Ratings","time_Cond000Sequence","time_Cond000Stim","time_Cond050Outcome","time_Cond050Rating","time_Cond050Sequence","time_Cond050Stim","time_Cond100Outcome","time_Cond100Rating","time_Cond100Sequence","time_Cond100Stim","time_Conditions_Stimuli","time_Current_Problems","time_Donewithblock","time_Explanation","time_Introduction","time_Stimuli","time_Testphaseintro","time_To_dos","time__000","time__050","time__100","time_experiment","time_main_sequence","time_new_form_multiple_choice","time_new_form_text_display","time_new_form_text_display_1","time_new_logger","time_new_logger_1","time_new_logger_1_1","time_new_sketchpad_1","time_new_sketchpad_2","time_test_phase","time_training_phase","time_welcome","title","uniform_coordinates","width"
"[A1]","Feather.png","Acorn.png","Flower.png","[B1]","BlackBerries.png","Mouse.png","Log.png","   ResponsesA  ResponsesB  ResponsesX
0           4           3           4","Diamond.png","4","3","4","   ResponsesA  ResponsesB  ResponsesX
0           4           3           4","Empty DataFrame
Columns: [ResponsesA, ResponsesB, ResponsesX]
Index: []","Empty DataFrame
Columns: [ResponsesA, ResponsesB, ResponsesX]
Index: []","[A1]","[X1]","<libopensesame.widgets.widget_factory.Label object at 0x00000202145D9208>","<libopensesame.widgets.widget_factory.Label object at 0x0000020219A98908>","<libopensesame.widgets.widget_factory.Label object at 0x0000020219A98088>","<libopensesame.widgets.widget_factory.Label object at 0x0000020219A98348>","<libopensesame.widgets.widget_factory.Label object at 0x0000020219A98448>","<libopensesame.widgets.widget_factory.Label object at 0x0000020219A9C488>","<libopensesame.widgets.widget_factory.Label object at 0x0000020219A9C548>","<libopensesame.widgets.widget_factory.Label object at 0x0000020219A9C888>","<libopensesame.widgets.widget_factory.Label object at 0x0000020219A98488>","<libopensesame.widgets.widget_factory.Label object at 0x0000020219A98508>","<libopensesame.widgets.widget_factory.Label object at 0x0000020219A98708>","<libopensesame.widgets.widget_factory.Label object at 0x0000020219A98548>","<libopensesame.widgets.widget_factory.Label object at 0x0000020219A98148>","<libopensesame.widgets.widget_factory.Label object at 0x0000020219A98588>","<libopensesame.widgets.widget_factory.Label object at 0x0000020219A98EC8>","<libopensesame.widgets.widget_factory.Label object at 0x0000020219A98848>","1","[X1]","Footprints.png","Beetle.png","Puddle.png","#f1f1f1","0","1","2","psycho","psycho","psycho","0","uniform","0","0","0","0","NA","NA","NA","NA","NA","NA","NA","NA","0","0","0","0","0","NA","0","0","0","0","0","0","0","NA","NA","0","0","NA","NA","NA","NA","NA","0","NA","Fri Jan 22 09:52:19 2021","The main experiment item","yes","","Experiment1.osexp","C:\Users\Sanne\Dropbox\MasterProject\Experiments","no","mono","no","18","no","#000000","no","Next","no","768","NA","NA","psycho","NA","0","0","0","[[0, 0], [0, 1], [0, 2], [0, 3], [0, 4], [0, 5], [0, 6], [0, 7], [0, 8], [0, 9], [0, 10], [0, 11], [0, 12], [0, 13], [2, 0], [2, 1], [2, 2], [2, 3], [2, 4], [2, 5], [2, 6], [2, 7], [2, 8], [2, 9], [2, 10], [2, 11], [2, 12], [2, 13]]","C:/Users/Sanne/Dropbox/MasterProject/Experiments/subj/subject-1.csv","psycho","Lentiform Loewenfeld","3.3.6","[0, 5]","0","5","[2, 10]","2","10","0","NA","NA","NA","NA","NA","NA","NA","NA","2","4","4","psycho","1024","2","48000","-16","experiment","1","odd","[[2, 0], [2, 1], [2, 2], [2, 3], [2, 4], [2, 5], [2, 6], [2, 7], [2, 8], [2, 9], [2, 10], [2, 11], [2, 12], [2, 13]]","10581.012999999984","10581.026199999997","10580.939399999806","10580.996000000141","NA","NA","NA","NA","NA","NA","NA","NA","1917.4964999997428","NA","NA","4259.960800000044","1921.5771999997742","NA","NA","NA","4667.255599999862","NA","NA","1917.2809000001507","4667.078800000127","NA","NA","NA","10581.03949999986","NA","NA","NA","NA","NA","4620.535600000039","NA","Experiment1","yes","1024"
"[A1]","Feather.png","Acorn.png","Flower.png","[B1]","BlackBerries.png","Mouse.png","Log.png","   ResponsesA  ResponsesB  ResponsesX
0           3           4           3","NoDiamond.png","3","4","3","   ResponsesA  ResponsesB  ResponsesX
0           4           3           4
1           3           4           3","Empty DataFrame
Columns: [ResponsesA, ResponsesB, ResponsesX]
Index: []","Empty DataFrame
Columns: [ResponsesA, ResponsesB, ResponsesX]
Index: []","[B1]","[X1]","<libopensesame.widgets.widget_factory.Label object at 0x0000020215A5DF08>","<libopensesame.widgets.widget_factory.Label object at 0x000002021BD72048>","<libopensesame.widgets.widget_factory.Label object at 0x000002021BD72CC8>","<libopensesame.widgets.widget_factory.Label object at 0x000002021BD728C8>","<libopensesame.widgets.widget_factory.Label object at 0x000002021BD72B48>","<libopensesame.widgets.widget_factory.Label object at 0x000002021BD72348>","<libopensesame.widgets.widget_factory.Label object at 0x000002021BD72388>","<libopensesame.widgets.widget_factory.Label object at 0x000002021BD72E48>","<libopensesame.widgets.widget_factory.Label object at 0x00000202115C9B48>","<libopensesame.widgets.widget_factory.Label object at 0x000002021BD65248>","<libopensesame.widgets.widget_factory.Label object at 0x000002021BD65B08>","<libopensesame.widgets.widget_factory.Label object at 0x000002021BD65A88>","<libopensesame.widgets.widget_factory.Label object at 0x000002021BD650C8>","<libopensesame.widgets.widget_factory.Label object at 0x000002021BD65EC8>","<libopensesame.widgets.widget_factory.Label object at 0x000002021BD72948>","<libopensesame.widgets.widget_factory.Label object at 0x000002021BD722C8>","2","[X1]","Footprints.png","Beetle.png","Puddle.png","#f1f1f1","0","1","2","psycho","psycho","psycho","0","uniform","1","1","1","1","NA","NA","NA","NA","NA","NA","NA","NA","0","0","0","0","0","NA","0","0","0","0","0","0","0","NA","NA","0","1","NA","NA","NA","NA","NA","0","NA","Fri Jan 22 09:52:19 2021","The main experiment item","yes","","Experiment1.osexp","C:\Users\Sanne\Dropbox\MasterProject\Experiments","no","mono","no","18","no","#000000","no","Next","no","768","4","3","psycho","4","1","1","0","[[0, 0], [0, 1], [0, 2], [0, 3], [0, 4], [0, 5], [0, 6], [0, 7], [0, 8], [0, 9], [0, 10], [0, 11], [0, 12], [0, 13], [2, 0], [2, 1], [2, 2], [2, 3], [2, 4], [2, 5], [2, 6], [2, 7], [2, 8], [2, 9], [2, 10], [2, 11], [2, 12], [2, 13]]","C:/Users/Sanne/Dropbox/MasterProject/Experiments/subj/subject-1.csv","psycho","Lentiform Loewenfeld","3.3.6","[0, 0]","0","0","[2, 0]","2","0","0","NA","NA","NA","NA","NA","NA","NA","NA","2","3","3","psycho","1024","2","48000","-16","experiment","1","odd","[[2, 0], [2, 1], [2, 2], [2, 3], [2, 4], [2, 5], [2, 6], [2, 7], [2, 8], [2, 9], [2, 10], [2, 11], [2, 12], [2, 13]]","17065.69780000018","17065.711100000044","17065.63099999994","17065.681099999892","NA","NA","NA","NA","NA","NA","NA","NA","1917.4964999997428","NA","NA","4259.960800000044","1921.5771999997742","NA","NA","NA","4667.255599999862","NA","NA","1917.2809000001507","4667.078800000127","NA","NA","NA","17065.72449999976","NA","NA","NA","NA","NA","4620.535600000039","NA","Experiment1","yes","1024"
"[A1]","Feather.png","Acorn.png","Flower.png","[B1]","BlackBerries.png","Mouse.png","Log.png","   ResponsesA  ResponsesB  ResponsesX
0           3           2           3","Diamond.png","3","2","3","   ResponsesA  ResponsesB  ResponsesX
0           4           3           4
1           3           4           3
2           3           2           3","Empty DataFrame
Columns: [ResponsesA, ResponsesB, ResponsesX]
Index: []","Empty DataFrame
Columns: [ResponsesA, ResponsesB, ResponsesX]
Index: []","[B1]","[X1]","<libopensesame.widgets.widget_factory.Label object at 0x000002021B4E9188>","<libopensesame.widgets.widget_factory.Label object at 0x000002021B4EF208>","<libopensesame.widgets.widget_factory.Label object at 0x000002021B4EF848>","<libopensesame.widgets.widget_factory.Label object at 0x0000020214E8DEC8>","<libopensesame.widgets.widget_factory.Label object at 0x0000020214E8D408>","<libopensesame.widgets.widget_factory.Label object at 0x0000020214E8D708>","<libopensesame.widgets.widget_factory.Label object at 0x000002021B4F1208>","<libopensesame.widgets.widget_factory.Label object at 0x000002021B4F1088>","<libopensesame.widgets.widget_factory.Label object at 0x000002021B4EF648>","<libopensesame.widgets.widget_factory.Label object at 0x000002021B4EF4C8>","<libopensesame.widgets.widget_factory.Label object at 0x000002021B4EFF08>","<libopensesame.widgets.widget_factory.Label object at 0x000002021B4EF5C8>","<libopensesame.widgets.widget_factory.Label object at 0x000002021B4EF448>","<libopensesame.widgets.widget_factory.Label object at 0x000002021B4EF748>","<libopensesame.widgets.widget_factory.Label object at 0x000002021B4EFB08>","<libopensesame.widgets.widget_factory.Label object at 0x000002021B4EF688>","3","[X1]","Footprints.png","Beetle.png","Puddle.png","#f1f1f1","0","1","2","psycho","psycho","psycho","0","uniform","2","2","2","2","NA","NA","NA","NA","NA","NA","NA","NA","0","0","0","0","0","NA","0","0","0","0","0","0","0","NA","NA","0","2","NA","NA","NA","NA","NA","0","NA","Fri Jan 22 09:52:19 2021","The main experiment item","yes","","Experiment1.osexp","C:\Users\Sanne\Dropbox\MasterProject\Experiments","no","mono","no","18","no","#000000","no","Next","no","768","3","4","psycho","3","2","2","0","[[0, 0], [0, 1], [0, 2], [0, 3], [0, 4], [0, 5], [0, 6], [0, 7], [0, 8], [0, 9], [0, 10], [0, 11], [0, 12], [0, 13], [2, 0], [2, 1], [2, 2], [2, 3], [2, 4], [2, 5], [2, 6], [2, 7], [2, 8], [2, 9], [2, 10], [2, 11], [2, 12], [2, 13]]","C:/Users/Sanne/Dropbox/MasterProject/Experiments/subj/subject-1.csv","psycho","Lentiform Loewenfeld","3.3.6","[0, 5]","0","5","[2, 7]","2","7","0","NA","NA","NA","NA","NA","NA","NA","NA","2","4","4","psycho","1024","2","48000","-16","experiment","1","odd","[[2, 0], [2, 1], [2, 2], [2, 3], [2, 4], [2, 5], [2, 6], [2, 7], [2, 8], [2, 9], [2, 10], [2, 11], [2, 12], [2, 13]]","23287.46490000003","23287.478100000044","23287.39510000014","23287.448499999755","NA","NA","NA","NA","NA","NA","NA","NA","1917.4964999997428","NA","NA","4259.960800000044","1921.5771999997742","NA","NA","NA","4667.255599999862","NA","NA","1917.2809000001507","4667.078800000127","NA","NA","NA","23287.49169999992","NA","NA","NA","NA","NA","4620.535600000039","NA","Experiment1","yes","1024"
"[A1]","Feather.png","Acorn.png","Flower.png","[B1]","BlackBerries.png","Mouse.png","Log.png","   ResponsesA  ResponsesB  ResponsesX
0           4           3           2","NoDiamond.png","4","3","2","   ResponsesA  ResponsesB  ResponsesX
0           4           3           4
1           3           4           3
2           3           2           3
3           4           3           2","Empty DataFrame
Columns: [ResponsesA, ResponsesB, ResponsesX]
Index: []","Empty DataFrame
Columns: [ResponsesA, ResponsesB, ResponsesX]
Index: []","[A1]","[X1]","<libopensesame.widgets.widget_factory.Label object at 0x000002021BD65088>","<libopensesame.widgets.widget_factory.Label object at 0x000002021B504888>","<libopensesame.widgets.widget_factory.Label object at 0x000002021B5049C8>","<libopensesame.widgets.widget_factory.Label object at 0x000002021B504A08>","<libopensesame.widgets.widget_factory.Label object at 0x000002021B504488>","<libopensesame.widgets.widget_factory.Label object at 0x000002021B504C88>","<libopensesame.widgets.widget_factory.Label object at 0x000002021B504EC8>","<libopensesame.widgets.widget_factory.Label object at 0x000002021B504FC8>","<libopensesame.widgets.widget_factory.Label object at 0x00000202076FE088>","<libopensesame.widgets.widget_factory.Label object at 0x000002021B504B48>","<libopensesame.widgets.widget_factory.Label object at 0x000002021B504AC8>","<libopensesame.widgets.widget_factory.Label object at 0x000002021B504308>","<libopensesame.widgets.widget_factory.Label object at 0x000002021B504808>","<libopensesame.widgets.widget_factory.Label object at 0x000002021B504908>","<libopensesame.widgets.widget_factory.Label object at 0x000002021B504708>","<libopensesame.widgets.widget_factory.Label object at 0x000002021B5048C8>","4","[X1]","Footprints.png","Beetle.png","Puddle.png","#f1f1f1","0","1","2","psycho","psycho","psycho","0","uniform","3","3","3","3","NA","NA","NA","NA","NA","NA","NA","NA","0","0","0","0","0","NA","0","0","0","0","0","0","0","NA","NA","0","3","NA","NA","NA","NA","NA","0","NA","Fri Jan 22 09:52:19 2021","The main experiment item","yes","","Experiment1.osexp","C:\Users\Sanne\Dropbox\MasterProject\Experiments","no","mono","no","18","no","#000000","no","Next","no","768","3","2","psycho","3","3","3","0","[[0, 0], [0, 1], [0, 2], [0, 3], [0, 4], [0, 5], [0, 6], [0, 7], [0, 8], [0, 9], [0, 10], [0, 11], [0, 12], [0, 13], [2, 0], [2, 1], [2, 2], [2, 3], [2, 4], [2, 5], [2, 6], [2, 7], [2, 8], [2, 9], [2, 10], [2, 11], [2, 12], [2, 13]]","C:/Users/Sanne/Dropbox/MasterProject/Experiments/subj/subject-1.csv","psycho","Lentiform Loewenfeld","3.3.6","[0, 11]","0","11","[2, 0]","2","0","0","NA","NA","NA","NA","NA","NA","NA","NA","2","4","3","psycho","1024","2","48000","-16","experiment","1","odd","[[2, 0], [2, 1], [2, 2], [2, 3], [2, 4], [2, 5], [2, 6], [2, 7], [2, 8], [2, 9], [2, 10], [2, 11], [2, 12], [2, 13]]","29042.062299999998","29042.074599999978","29042.00119999996","29042.0466999999","NA","NA","NA","NA","NA","NA","NA","NA","1917.4964999997428","NA","NA","4259.960800000044","1921.5771999997742","NA","NA","NA","4667.255599999862","NA","NA","1917.2809000001507","4667.078800000127","NA","NA","NA","29042.08719999997","NA","NA","NA","NA","NA","4620.535600000039","NA","Experiment1","yes","1024"
"[A1]","Feather.png","Acorn.png","Flower.png","[B1]","BlackBerries.png","Mouse.png","Log.png","   ResponsesA  ResponsesB  ResponsesX
0           4           5           4","NoDiamond.png","4","5","4","   ResponsesA  ResponsesB  ResponsesX
0           4           3           4
1           3           4           3
2           3           2           3
3           4           3           2
4           4           5           4","Empty DataFrame
Columns: [ResponsesA, ResponsesB, ResponsesX]
Index: []","Empty DataFrame
Columns: [ResponsesA, ResponsesB, ResponsesX]
Index: []","[A1]","[X1]","<libopensesame.widgets.widget_factory.Label object at 0x000002021BD6C588>","<libopensesame.widgets.widget_factory.Label object at 0x0000020215CA2908>","<libopensesame.widgets.widget_factory.Label object at 0x0000020215CA2FC8>","<libopensesame.widgets.widget_factory.Label object at 0x0000020215CA2F88>","<libopensesame.widgets.widget_factory.Label object at 0x0000020215CA2888>","<libopensesame.widgets.widget_factory.Label object at 0x000002021BD68D88>","<libopensesame.widgets.widget_factory.Label object at 0x000002021BD68048>","<libopensesame.widgets.widget_factory.Label object at 0x000002021BD68908>","<libopensesame.widgets.widget_factory.Label object at 0x000002021BD6C388>","<libopensesame.widgets.widget_factory.Label object at 0x000002021BD6CF88>","<libopensesame.widgets.widget_factory.Label object at 0x000002021BD6C988>","<libopensesame.widgets.widget_factory.Label object at 0x000002021BD6CC08>","<libopensesame.widgets.widget_factory.Label object at 0x000002021BD6CD88>","<libopensesame.widgets.widget_factory.Label object at 0x000002021BD6CA48>","<libopensesame.widgets.widget_factory.Label object at 0x0000020215CA26C8>","<libopensesame.widgets.widget_factory.Label object at 0x0000020215CA2D08>","5","[X1]","Footprints.png","Beetle.png","Puddle.png","#f1f1f1","0","1","2","psycho","psycho","psycho","0","uniform","4","4","4","4","NA","NA","NA","NA","NA","NA","NA","NA","0","0","0","0","0","NA","0","0","0","0","0","0","0","NA","NA","0","4","NA","NA","NA","NA","NA","0","NA","Fri Jan 22 09:52:19 2021","The main experiment item","yes","","Experiment1.osexp","C:\Users\Sanne\Dropbox\MasterProject\Experiments","no","mono","no","18","no","#000000","no","Next","no","768","4","3","psycho","2","4","4","0","[[0, 0], [0, 1], [0, 2], [0, 3], [0, 4], [0, 5], [0, 6], [0, 7], [0, 8], [0, 9], [0, 10], [0, 11], [0, 12], [0, 13], [2, 0], [2, 1], [2, 2], [2, 3], [2, 4], [2, 5], [2, 6], [2, 7], [2, 8], [2, 9], [2, 10], [2, 11], [2, 12], [2, 13]]","C:/Users/Sanne/Dropbox/MasterProject/Experiments/subj/subject-1.csv","psycho","Lentiform Loewenfeld","3.3.6","[2, 5]","2","5","[0, 6]","0","6","0","NA","NA","NA","NA","NA","NA","NA","NA","2","4","4","psycho","1024","2","48000","-16","experiment","1","odd","[[0, 0], [0, 1], [0, 2], [0, 3], [0, 4], [0, 5], [0, 6], [0, 7], [0, 8], [0, 9], [0, 10], [0, 11], [0, 12], [0, 13]]","35130.80859999991","35130.822399999946","35130.74129999995","35130.7910999999","NA","NA","NA","NA","NA","NA","NA","NA","1917.4964999997428","NA","NA","4259.960800000044","1921.5771999997742","NA","NA","NA","4667.255599999862","NA","NA","1917.2809000001507","4667.078800000127","NA","NA","NA","35130.83640000013","NA","NA","NA","NA","NA","4620.535600000039","NA","Experiment1","yes","1024"
"[A1]","Feather.png","Acorn.png","Flower.png","[B1]","BlackBerries.png","Mouse.png","Log.png","   ResponsesA  ResponsesB  ResponsesX
0           5           4           5","Diamond.png","5","4","5","   ResponsesA  ResponsesB  ResponsesX
0           4           3           4
1           3           4           3
2           3           2           3
3           4           3           2
4           4           5           4
5           5           4           5","Empty DataFrame
Columns: [ResponsesA, ResponsesB, ResponsesX]
Index: []","Empty DataFrame
Columns: [ResponsesA, ResponsesB, ResponsesX]
Index: []","[B1]","[X1]","<libopensesame.widgets.widget_factory.Label object at 0x0000020215CA98C8>","<libopensesame.widgets.widget_factory.Label object at 0x000002021AC7F308>","<libopensesame.widgets.widget_factory.Label object at 0x000002021AC7F208>","<libopensesame.widgets.widget_factory.Label object at 0x000002021AC7FDC8>","<libopensesame.widgets.widget_factory.Label object at 0x000002021AC7FD48>","<libopensesame.widgets.widget_factory.Label object at 0x000002021AC7F408>","<libopensesame.widgets.widget_factory.Label object at 0x000002021AC7FC48>","<libopensesame.widgets.widget_factory.Label object at 0x000002021AC7F708>","<libopensesame.widgets.widget_factory.Label object at 0x0000020215CA9C88>","<libopensesame.widgets.widget_factory.Label object at 0x0000020215CA9B08>","<libopensesame.widgets.widget_factory.Label object at 0x0000020215CA93C8>","<libopensesame.widgets.widget_factory.Label object at 0x0000020219A98D48>","<libopensesame.widgets.widget_factory.Label object at 0x0000020214E90808>","<libopensesame.widgets.widget_factory.Label object at 0x0000020214E90F88>","<libopensesame.widgets.widget_factory.Label object at 0x0000020214E90D88>","<libopensesame.widgets.widget_factory.Label object at 0x000002021AC7F5C8>","6","[X1]","Footprints.png","Beetle.png","Puddle.png","#f1f1f1","0","1","2","psycho","psycho","psycho","0","uniform","5","5","5","5","NA","NA","NA","NA","NA","NA","NA","NA","0","0","0","0","0","NA","0","0","0","0","0","0","0","NA","NA","0","5","NA","NA","NA","NA","NA","0","NA","Fri Jan 22 09:52:19 2021","The main experiment item","yes","","Experiment1.osexp","C:\Users\Sanne\Dropbox\MasterProject\Experiments","no","mono","no","18","no","#000000","no","Next","no","768","4","5","psycho","4","5","5","0","[[0, 0], [0, 1], [0, 2], [0, 3], [0, 4], [0, 5], [0, 6], [0, 7], [0, 8], [0, 9], [0, 10], [0, 11], [0, 12], [0, 13], [2, 0], [2, 1], [2, 2], [2, 3], [2, 4], [2, 5], [2, 6], [2, 7], [2, 8], [2, 9], [2, 10], [2, 11], [2, 12], [2, 13]]","C:/Users/Sanne/Dropbox/MasterProject/Experiments/subj/subject-1.csv","psycho","Lentiform Loewenfeld","3.3.6","[0, 3]","0","3","[2, 9]","2","9","0","NA","NA","NA","NA","NA","NA","NA","NA","2","4","4","psycho","1024","2","48000","-16","experiment","1","odd","[[2, 0], [2, 1], [2, 2], [2, 3], [2, 4], [2, 5], [2, 6], [2, 7], [2, 8], [2, 9], [2, 10], [2, 11], [2, 12], [2, 13]]","41135.24460000008","41135.2579999998","41135.1638000001","41135.22419999981","NA","NA","NA","NA","NA","NA","NA","NA","1917.4964999997428","NA","NA","4259.960800000044","1921.5771999997742","NA","NA","NA","4667.255599999862","NA","NA","1917.2809000001507","4667.078800000127","NA","NA","NA","41135.2710000001","NA","NA","NA","NA","NA","4620.535600000039","NA","Experiment1","yes","1024"
"[A1]","Feather.png","Acorn.png","Flower.png","[B1]","BlackBerries.png","Mouse.png","Log.png","   ResponsesA  ResponsesB  ResponsesX
0           6           6           6","Diamond.png","6","6","6","   ResponsesA  ResponsesB  ResponsesX
0           4           3           4
1           3           4           3
2           3           2           3
3           4           3           2
4           4           5           4
5           5           4           5
6           6           6           6","Empty DataFrame
Columns: [ResponsesA, ResponsesB, ResponsesX]
Index: []","Empty DataFrame
Columns: [ResponsesA, ResponsesB, ResponsesX]
Index: []","[A1]","[X1]","<libopensesame.widgets.widget_factory.Label object at 0x000002021BD53988>","<libopensesame.widgets.widget_factory.Label object at 0x000002021BD65248>","<libopensesame.widgets.widget_factory.Label object at 0x000002021BD65948>","<libopensesame.widgets.widget_factory.Label object at 0x000002021BD65CC8>","<libopensesame.widgets.widget_factory.Label object at 0x000002021BD656C8>","<libopensesame.widgets.widget_factory.Label object at 0x000002021C1F4F48>","<libopensesame.widgets.widget_factory.Label object at 0x000002021C1F4288>","<libopensesame.widgets.widget_factory.Label object at 0x000002021C1F4B48>","<libopensesame.widgets.widget_factory.Label object at 0x000002021BD537C8>","<libopensesame.widgets.widget_factory.Label object at 0x000002021BD53E08>","<libopensesame.widgets.widget_factory.Label object at 0x000002021BD53348>","<libopensesame.widgets.widget_factory.Label object at 0x000002021BD53A88>","<libopensesame.widgets.widget_factory.Label object at 0x000002021BD53088>","<libopensesame.widgets.widget_factory.Label object at 0x000002021BD53288>","<libopensesame.widgets.widget_factory.Label object at 0x000002021BD53308>","<libopensesame.widgets.widget_factory.Label object at 0x000002021BD68E08>","7","[X1]","Footprints.png","Beetle.png","Puddle.png","#f1f1f1","0","1","2","psycho","psycho","psycho","0","uniform","6","6","6","6","NA","NA","NA","NA","NA","NA","NA","NA","0","0","0","0","0","NA","0","0","0","0","0","0","0","NA","NA","0","6","NA","NA","NA","NA","NA","0","NA","Fri Jan 22 09:52:19 2021","The main experiment item","yes","","Experiment1.osexp","C:\Users\Sanne\Dropbox\MasterProject\Experiments","no","mono","no","18","no","#000000","no","Next","no","768","5","4","psycho","5","6","6","0","[[0, 0], [0, 1], [0, 2], [0, 3], [0, 4], [0, 5], [0, 6], [0, 7], [0, 8], [0, 9], [0, 10], [0, 11], [0, 12], [0, 13], [2, 0], [2, 1], [2, 2], [2, 3], [2, 4], [2, 5], [2, 6], [2, 7], [2, 8], [2, 9], [2, 10], [2, 11], [2, 12], [2, 13]]","C:/Users/Sanne/Dropbox/MasterProject/Experiments/subj/subject-1.csv","psycho","Lentiform Loewenfeld","3.3.6","[2, 9]","2","9","[0, 9]","0","9","0","NA","NA","NA","NA","NA","NA","NA","NA","2","4","4","psycho","1024","2","48000","-16","experiment","1","odd","[[0, 0], [0, 1], [0, 2], [0, 3], [0, 4], [0, 5], [0, 6], [0, 7], [0, 8], [0, 9], [0, 10], [0, 11], [0, 12], [0, 13]]","46840.06060000001","46840.07380000003","46839.99099999983","46840.04409999988","NA","NA","NA","NA","NA","NA","NA","NA","1917.4964999997428","NA","NA","4259.960800000044","1921.5771999997742","NA","NA","NA","4667.255599999862","NA","NA","1917.2809000001507","4667.078800000127","NA","NA","NA","46840.08719999975","NA","NA","NA","NA","NA","4620.535600000039","NA","Experiment1","yes","1024"
"[A1]","Feather.png","Acorn.png","Flower.png","[B1]","BlackBerries.png","Mouse.png","Log.png","   ResponsesA  ResponsesB  ResponsesX
0           5           5           5","NoDiamond.png","5","5","5","   ResponsesA  ResponsesB  ResponsesX
0           4           3           4
1           3           4           3
2           3           2           3
3           4           3           2
4           4           5           4
5           5           4           5
6           6           6           6
7           5           5           5","Empty DataFrame
Columns: [ResponsesA, ResponsesB, ResponsesX]
Index: []","Empty DataFrame
Columns: [ResponsesA, ResponsesB, ResponsesX]
Index: []","[B1]","[X1]","<libopensesame.widgets.widget_factory.Label object at 0x000002021C1F42C8>","<libopensesame.widgets.widget_factory.Label object at 0x000002021B504A08>","<libopensesame.widgets.widget_factory.Label object at 0x000002021B504548>","<libopensesame.widgets.widget_factory.Label object at 0x000002021B504088>","<libopensesame.widgets.widget_factory.Label object at 0x000002021B504508>","<libopensesame.widgets.widget_factory.Label object at 0x000002021B504A48>","<libopensesame.widgets.widget_factory.Label object at 0x000002021B504B08>","<libopensesame.widgets.widget_factory.Label object at 0x000002021B504B88>","<libopensesame.widgets.widget_factory.Label object at 0x00000202145D9088>","<libopensesame.widgets.widget_factory.Label object at 0x00000202145D9848>","<libopensesame.widgets.widget_factory.Label object at 0x00000202145D9D48>","<libopensesame.widgets.widget_factory.Label object at 0x000002021B374EC8>","<libopensesame.widgets.widget_factory.Label object at 0x000002021330F948>","<libopensesame.widgets.widget_factory.Label object at 0x000002021B5046C8>","<libopensesame.widgets.widget_factory.Label object at 0x000002021B5043C8>","<libopensesame.widgets.widget_factory.Label object at 0x000002021B504848>","8","[X1]","Footprints.png","Beetle.png","Puddle.png","#f1f1f1","0","1","2","psycho","psycho","psycho","0","uniform","7","7","7","7","NA","NA","NA","NA","NA","NA","NA","NA","0","0","0","0","0","NA","0","0","0","0","0","0","0","NA","NA","0","7","NA","NA","NA","NA","NA","0","NA","Fri Jan 22 09:52:19 2021","The main experiment item","yes","","Experiment1.osexp","C:\Users\Sanne\Dropbox\MasterProject\Experiments","no","mono","no","18","no","#000000","no","Next","no","768","6","6","psycho","6","7","7","0","[[0, 0], [0, 1], [0, 2], [0, 3], [0, 4], [0, 5], [0, 6], [0, 7], [0, 8], [0, 9], [0, 10], [0, 11], [0, 12], [0, 13], [2, 0], [2, 1], [2, 2], [2, 3], [2, 4], [2, 5], [2, 6], [2, 7], [2, 8], [2, 9], [2, 10], [2, 11], [2, 12], [2, 13]]","C:/Users/Sanne/Dropbox/MasterProject/Experiments/subj/subject-1.csv","psycho","Lentiform Loewenfeld","3.3.6","[2, 8]","2","8","[0, 1]","0","1","0","NA","NA","NA","NA","NA","NA","NA","NA","2","4","4","psycho","1024","2","48000","-16","experiment","1","odd","[[0, 0], [0, 1], [0, 2], [0, 3], [0, 4], [0, 5], [0, 6], [0, 7], [0, 8], [0, 9], [0, 10], [0, 11], [0, 12], [0, 13]]","53245.332399999825","53245.34510000012","53245.26549999973","53245.316799999724","NA","NA","NA","NA","NA","NA","NA","NA","1917.4964999997428","NA","NA","4259.960800000044","1921.5771999997742","NA","NA","NA","4667.255599999862","NA","NA","1917.2809000001507","4667.078800000127","NA","NA","NA","53245.35770000011","NA","NA","NA","NA","NA","4620.535600000039","NA","Experiment1","yes","1024"
"[A1]","Feather.png","Acorn.png","Flower.png","[B1]","BlackBerries.png","Mouse.png","Log.png","   ResponsesA  ResponsesB  ResponsesX
0           0           0           8","Diamond.png","0","0","8","   ResponsesA  ResponsesB  ResponsesX
0           4           3           4
1           3           4           3
2           3           2           3
3           4           3           2
4           4           5           4
5           5           4           5
6           6           6           6
7           5           5           5
8           0           0           8","Empty DataFrame
Columns: [ResponsesA, ResponsesB, ResponsesX]
Index: []","Empty DataFrame
Columns: [ResponsesA, ResponsesB, ResponsesX]
Index: []","[B1]","[X1]","<libopensesame.widgets.widget_factory.Label object at 0x00000202198BFFC8>","<libopensesame.widgets.widget_factory.Label object at 0x00000202198BF3C8>","<libopensesame.widgets.widget_factory.Label object at 0x00000202198BF208>","<libopensesame.widgets.widget_factory.Label object at 0x00000202198BFB08>","<libopensesame.widgets.widget_factory.Label object at 0x00000202198BF148>","<libopensesame.widgets.widget_factory.Label object at 0x00000202198BFD88>","<libopensesame.widgets.widget_factory.Label object at 0x00000202198BFF88>","<libopensesame.widgets.widget_factory.Label object at 0x00000202198BF4C8>","<libopensesame.widgets.widget_factory.Label object at 0x00000202198BFDC8>","<libopensesame.widgets.widget_factory.Label object at 0x00000202198BF908>","<libopensesame.widgets.widget_factory.Label object at 0x00000202198BF448>","<libopensesame.widgets.widget_factory.Label object at 0x00000202198BF648>","<libopensesame.widgets.widget_factory.Label object at 0x00000202198BF988>","<libopensesame.widgets.widget_factory.Label object at 0x00000202198BFB48>","<libopensesame.widgets.widget_factory.Label object at 0x00000202198BFAC8>","<libopensesame.widgets.widget_factory.Label object at 0x00000202198BFD08>","9","[X1]","Footprints.png","Beetle.png","Puddle.png","#f1f1f1","0","1","2","psycho","psycho","psycho","0","uniform","8","8","8","8","NA","NA","NA","NA","NA","NA","NA","NA","0","0","0","0","0","NA","0","0","0","0","0","0","0","NA","NA","0","8","NA","NA","NA","NA","NA","0","NA","Fri Jan 22 09:52:19 2021","The main experiment item","yes","","Experiment1.osexp","C:\Users\Sanne\Dropbox\MasterProject\Experiments","no","mono","no","18","no","#000000","no","Next","no","768","5","5","psycho","5","8","8","0","[[0, 0], [0, 1], [0, 2], [0, 3], [0, 4], [0, 5], [0, 6], [0, 7], [0, 8], [0, 9], [0, 10], [0, 11], [0, 12], [0, 13], [2, 0], [2, 1], [2, 2], [2, 3], [2, 4], [2, 5], [2, 6], [2, 7], [2, 8], [2, 9], [2, 10], [2, 11], [2, 12], [2, 13]]","C:/Users/Sanne/Dropbox/MasterProject/Experiments/subj/subject-1.csv","psycho","Lentiform Loewenfeld","3.3.6","[2, 1]","2","1","[0, 11]","0","11","0","NA","NA","NA","NA","NA","NA","NA","NA","2","4","4","psycho","1024","2","48000","-16","experiment","1","odd","[[0, 0], [0, 1], [0, 2], [0, 3], [0, 4], [0, 5], [0, 6], [0, 7], [0, 8], [0, 9], [0, 10], [0, 11], [0, 12], [0, 13]]","64337.97340000001","64337.9888999998","64337.87579999989","64337.94979999993","NA","NA","NA","NA","NA","NA","NA","NA","1917.4964999997428","NA","NA","4259.960800000044","1921.5771999997742","NA","NA","NA","4667.255599999862","NA","NA","1917.2809000001507","4667.078800000127","NA","NA","NA","64338.00560000009","NA","NA","NA","NA","NA","4620.535600000039","NA","Experiment1","yes","1024"
"[A1]","Feather.png","Acorn.png","Flower.png","[B1]","BlackBerries.png","Mouse.png","Log.png","   ResponsesA  ResponsesB  ResponsesX
0           5           6           4","NoDiamond.png","5","6","4","   ResponsesA  ResponsesB  ResponsesX
0           4           3           4
1           3           4           3
2           3           2           3
3           4           3           2
4           4           5           4
5           5           4           5
6           6           6           6
7           5           5           5
8           0           0           8
9           5           6           4","Empty DataFrame
Columns: [ResponsesA, ResponsesB, ResponsesX]
Index: []","Empty DataFrame
Columns: [ResponsesA, ResponsesB, ResponsesX]
Index: []","[A1]","[X1]","<libopensesame.widgets.widget_factory.Label object at 0x000002021B4E6208>","<libopensesame.widgets.widget_factory.Label object at 0x0000020214E82EC8>","<libopensesame.widgets.widget_factory.Label object at 0x0000020214E828C8>","<libopensesame.widgets.widget_factory.Label object at 0x0000020214E82548>","<libopensesame.widgets.widget_factory.Label object at 0x0000020214E897C8>","<libopensesame.widgets.widget_factory.Label object at 0x0000020214E89408>","<libopensesame.widgets.widget_factory.Label object at 0x0000020214E89308>","<libopensesame.widgets.widget_factory.Label object at 0x0000020219AA5448>","<libopensesame.widgets.widget_factory.Label object at 0x0000020219D5A788>","<libopensesame.widgets.widget_factory.Label object at 0x0000020219D5A248>","<libopensesame.widgets.widget_factory.Label object at 0x0000020219D5AFC8>","<libopensesame.widgets.widget_factory.Label object at 0x0000020219D5AB48>","<libopensesame.widgets.widget_factory.Label object at 0x0000020219D5A548>","<libopensesame.widgets.widget_factory.Label object at 0x0000020219D5AE08>","<libopensesame.widgets.widget_factory.Label object at 0x0000020214E82788>","<libopensesame.widgets.widget_factory.Label object at 0x0000020214E82F08>","10","[X1]","Footprints.png","Beetle.png","Puddle.png","#f1f1f1","0","1","2","psycho","psycho","psycho","0","uniform","9","9","9","9","NA","NA","NA","NA","NA","NA","NA","NA","0","0","0","0","0","NA","0","0","0","0","0","0","0","NA","NA","0","9","NA","NA","NA","NA","NA","0","NA","Fri Jan 22 09:52:19 2021","The main experiment item","yes","","Experiment1.osexp","C:\Users\Sanne\Dropbox\MasterProject\Experiments","no","mono","no","18","no","#000000","no","Next","no","768","0","0","psycho","8","9","9","0","[[0, 0], [0, 1], [0, 2], [0, 3], [0, 4], [0, 5], [0, 6], [0, 7], [0, 8], [0, 9], [0, 10], [0, 11], [0, 12], [0, 13], [2, 0], [2, 1], [2, 2], [2, 3], [2, 4], [2, 5], [2, 6], [2, 7], [2, 8], [2, 9], [2, 10], [2, 11], [2, 12], [2, 13]]","C:/Users/Sanne/Dropbox/MasterProject/Experiments/subj/subject-1.csv","psycho","Lentiform Loewenfeld","3.3.6","[0, 10]","0","10","[2, 4]","2","4","0","NA","NA","NA","NA","NA","NA","NA","NA","2","4","4","psycho","1024","2","48000","-16","experiment","1","odd","[[2, 0], [2, 1], [2, 2], [2, 3], [2, 4], [2, 5], [2, 6], [2, 7], [2, 8], [2, 9], [2, 10], [2, 11], [2, 12], [2, 13]]","70726.19459999987","70726.2080999999","70726.12960000015","70726.17790000004","NA","NA","NA","NA","NA","NA","NA","NA","1917.4964999997428","NA","NA","4259.960800000044","1921.5771999997742","NA","NA","NA","4667.255599999862","NA","NA","1917.2809000001507","4667.078800000127","NA","NA","NA","70726.22169999976","NA","NA","NA","NA","NA","4620.535600000039","NA","Experiment1","yes","1024"
"[A1]","Feather.png","Acorn.png","Flower.png","[B1]","BlackBerries.png","Mouse.png","Log.png","   ResponsesA  ResponsesB  ResponsesX
0           6           5           6","NoDiamond.png","6","5","6","    ResponsesA  ResponsesB  ResponsesX
0            4           3           4
1            3           4           3
2            3           2           3
3            4           3           2
4            4           5           4
5            5           4           5
6            6           6           6
7            5           5           5
8            0           0           8
9            5           6           4
10           6           5           6","Empty DataFrame
Columns: [ResponsesA, ResponsesB, ResponsesX]
Index: []","Empty DataFrame
Columns: [ResponsesA, ResponsesB, ResponsesX]
Index: []","[B1]","[X1]","<libopensesame.widgets.widget_factory.Label object at 0x000002021B5042C8>","<libopensesame.widgets.widget_factory.Label object at 0x000002021BD62848>","<libopensesame.widgets.widget_factory.Label object at 0x000002021BD62F48>","<libopensesame.widgets.widget_factory.Label object at 0x000002021BD62148>","<libopensesame.widgets.widget_factory.Label object at 0x000002021BD62FC8>","<libopensesame.widgets.widget_factory.Label object at 0x000002021BD62408>","<libopensesame.widgets.widget_factory.Label object at 0x000002021BD62F88>","<libopensesame.widgets.widget_factory.Label object at 0x000002021BD62748>","<libopensesame.widgets.widget_factory.Label object at 0x000002021B251348>","<libopensesame.widgets.widget_factory.Label object at 0x0000020219AA5908>","<libopensesame.widgets.widget_factory.Label object at 0x0000020219AA5B88>","<libopensesame.widgets.widget_factory.Label object at 0x0000020219AA5048>","<libopensesame.widgets.widget_factory.Label object at 0x0000020219AA5F48>","<libopensesame.widgets.widget_factory.Label object at 0x0000020219AA5408>","<libopensesame.widgets.widget_factory.Label object at 0x0000020219AA5488>","<libopensesame.widgets.widget_factory.Label object at 0x0000020219AA5508>","11","[X1]","Footprints.png","Beetle.png","Puddle.png","#f1f1f1","0","1","2","psycho","psycho","psycho","0","uniform","10","10","10","10","NA","NA","NA","NA","NA","NA","NA","NA","0","0","0","0","0","NA","0","0","0","0","0","0","0","NA","NA","0","10","NA","NA","NA","NA","NA","0","NA","Fri Jan 22 09:52:19 2021","The main experiment item","yes","","Experiment1.osexp","C:\Users\Sanne\Dropbox\MasterProject\Experiments","no","mono","no","18","no","#000000","no","Next","no","768","5","6","psycho","4","10","10","0","[[0, 0], [0, 1], [0, 2], [0, 3], [0, 4], [0, 5], [0, 6], [0, 7], [0, 8], [0, 9], [0, 10], [0, 11], [0, 12], [0, 13], [2, 0], [2, 1], [2, 2], [2, 3], [2, 4], [2, 5], [2, 6], [2, 7], [2, 8], [2, 9], [2, 10], [2, 11], [2, 12], [2, 13]]","C:/Users/Sanne/Dropbox/MasterProject/Experiments/subj/subject-1.csv","psycho","Lentiform Loewenfeld","3.3.6","[2, 13]","2","13","[0, 4]","0","4","0","NA","NA","NA","NA","NA","NA","NA","NA","2","4","4","psycho","1024","2","48000","-16","experiment","1","odd","[[0, 0], [0, 1], [0, 2], [0, 3], [0, 4], [0, 5], [0, 6], [0, 7], [0, 8], [0, 9], [0, 10], [0, 11], [0, 12], [0, 13]]","76464.28190000006","76464.29519999992","76464.21659999987","76464.26569999995","NA","NA","NA","NA","NA","NA","NA","NA","1917.4964999997428","NA","NA","4259.960800000044","1921.5771999997742","NA","NA","NA","4667.255599999862","NA","NA","1917.2809000001507","4667.078800000127","NA","NA","NA","76464.30869999995","NA","NA","NA","NA","NA","4620.535600000039","NA","Experiment1","yes","1024"
"[A1]","Feather.png","Acorn.png","Flower.png","[B1]","BlackBerries.png","Mouse.png","Log.png","   ResponsesA  ResponsesB  ResponsesX
0           5           6           5","Diamond.png","5","6","5","    ResponsesA  ResponsesB  ResponsesX
0            4           3           4
1            3           4           3
2            3           2           3
3            4           3           2
4            4           5           4
5            5           4           5
6            6           6           6
7            5           5           5
8            0           0           8
9            5           6           4
10           6           5           6
11           5           6           5","Empty DataFrame
Columns: [ResponsesA, ResponsesB, ResponsesX]
Index: []","Empty DataFrame
Columns: [ResponsesA, ResponsesB, ResponsesX]
Index: []","[A1]","[X1]","<libopensesame.widgets.widget_factory.Label object at 0x0000020214411EC8>","<libopensesame.widgets.widget_factory.Label object at 0x0000020214656148>","<libopensesame.widgets.widget_factory.Label object at 0x00000202146564C8>","<libopensesame.widgets.widget_factory.Label object at 0x0000020214656348>","<libopensesame.widgets.widget_factory.Label object at 0x0000020214656408>","<libopensesame.widgets.widget_factory.Label object at 0x00000202146563C8>","<libopensesame.widgets.widget_factory.Label object at 0x0000020219A98F08>","<libopensesame.widgets.widget_factory.Label object at 0x0000020219A98CC8>","<libopensesame.widgets.widget_factory.Label object at 0x000002021332FB48>","<libopensesame.widgets.widget_factory.Label object at 0x000002021332F948>","<libopensesame.widgets.widget_factory.Label object at 0x000002021332FA88>","<libopensesame.widgets.widget_factory.Label object at 0x000002021332FA08>","<libopensesame.widgets.widget_factory.Label object at 0x0000020214656A88>","<libopensesame.widgets.widget_factory.Label object at 0x0000020214656388>","<libopensesame.widgets.widget_factory.Label object at 0x0000020214656D08>","<libopensesame.widgets.widget_factory.Label object at 0x0000020214656748>","12","[X1]","Footprints.png","Beetle.png","Puddle.png","#f1f1f1","0","1","2","psycho","psycho","psycho","0","uniform","11","11","11","11","NA","NA","NA","NA","NA","NA","NA","NA","0","0","0","0","0","NA","0","0","0","0","0","0","0","NA","NA","0","11","NA","NA","NA","NA","NA","0","NA","Fri Jan 22 09:52:19 2021","The main experiment item","yes","","Experiment1.osexp","C:\Users\Sanne\Dropbox\MasterProject\Experiments","no","mono","no","18","no","#000000","no","Next","no","768","6","5","psycho","6","11","11","0","[[0, 0], [0, 1], [0, 2], [0, 3], [0, 4], [0, 5], [0, 6], [0, 7], [0, 8], [0, 9], [0, 10], [0, 11], [0, 12], [0, 13], [2, 0], [2, 1], [2, 2], [2, 3], [2, 4], [2, 5], [2, 6], [2, 7], [2, 8], [2, 9], [2, 10], [2, 11], [2, 12], [2, 13]]","C:/Users/Sanne/Dropbox/MasterProject/Experiments/subj/subject-1.csv","psycho","Lentiform Loewenfeld","3.3.6","[2, 13]","2","13","[0, 3]","0","3","0","NA","NA","NA","NA","NA","NA","NA","NA","2","4","4","psycho","1024","2","48000","-16","experiment","1","odd","[[0, 0], [0, 1], [0, 2], [0, 3], [0, 4], [0, 5], [0, 6], [0, 7], [0, 8], [0, 9], [0, 10], [0, 11], [0, 12], [0, 13]]","82389.05369999976","82389.06709999993","82388.98119999976","82389.03600000004","NA","NA","NA","NA","NA","NA","NA","NA","1917.4964999997428","NA","NA","4259.960800000044","1921.5771999997742","NA","NA","NA","4667.255599999862","NA","NA","1917.2809000001507","4667.078800000127","NA","NA","NA","82389.08009999977","NA","NA","NA","NA","NA","4620.535600000039","NA","Experiment1","yes","1024"
"[A1]","Feather.png","Acorn.png","Flower.png","[B1]","BlackBerries.png","Mouse.png","Log.png","   ResponsesA  ResponsesB  ResponsesX
0           6           5           6","NoDiamond.png","6","5","6","    ResponsesA  ResponsesB  ResponsesX
0            4           3           4
1            3           4           3
2            3           2           3
3            4           3           2
4            4           5           4
5            5           4           5
6            6           6           6
7            5           5           5
8            0           0           8
9            5           6           4
10           6           5           6
11           5           6           5
12           6           5           6","Empty DataFrame
Columns: [ResponsesA, ResponsesB, ResponsesX]
Index: []","Empty DataFrame
Columns: [ResponsesA, ResponsesB, ResponsesX]
Index: []","[A1]","[X1]","<libopensesame.widgets.widget_factory.Label object at 0x0000020219D5A808>","<libopensesame.widgets.widget_factory.Label object at 0x0000020214716548>","<libopensesame.widgets.widget_factory.Label object at 0x0000020214716948>","<libopensesame.widgets.widget_factory.Label object at 0x00000202147162C8>","<libopensesame.widgets.widget_factory.Label object at 0x0000020214716B08>","<libopensesame.widgets.widget_factory.Label object at 0x0000020214716BC8>","<libopensesame.widgets.widget_factory.Label object at 0x0000020214716E88>","<libopensesame.widgets.widget_factory.Label object at 0x000002021440B6C8>","<libopensesame.widgets.widget_factory.Label object at 0x0000020214716C88>","<libopensesame.widgets.widget_factory.Label object at 0x0000020214716C08>","<libopensesame.widgets.widget_factory.Label object at 0x00000202147164C8>","<libopensesame.widgets.widget_factory.Label object at 0x0000020214716EC8>","<libopensesame.widgets.widget_factory.Label object at 0x0000020214716108>","<libopensesame.widgets.widget_factory.Label object at 0x00000202147166C8>","<libopensesame.widgets.widget_factory.Label object at 0x0000020214716E08>","<libopensesame.widgets.widget_factory.Label object at 0x0000020214716508>","13","[X1]","Footprints.png","Beetle.png","Puddle.png","#f1f1f1","0","1","2","psycho","psycho","psycho","0","uniform","12","12","12","12","NA","NA","NA","NA","NA","NA","NA","NA","0","0","0","0","0","NA","0","0","0","0","0","0","0","NA","NA","0","12","NA","NA","NA","NA","NA","0","NA","Fri Jan 22 09:52:19 2021","The main experiment item","yes","","Experiment1.osexp","C:\Users\Sanne\Dropbox\MasterProject\Experiments","no","mono","no","18","no","#000000","no","Next","no","768","5","6","psycho","5","12","12","0","[[0, 0], [0, 1], [0, 2], [0, 3], [0, 4], [0, 5], [0, 6], [0, 7], [0, 8], [0, 9], [0, 10], [0, 11], [0, 12], [0, 13], [2, 0], [2, 1], [2, 2], [2, 3], [2, 4], [2, 5], [2, 6], [2, 7], [2, 8], [2, 9], [2, 10], [2, 11], [2, 12], [2, 13]]","C:/Users/Sanne/Dropbox/MasterProject/Experiments/subj/subject-1.csv","psycho","Lentiform Loewenfeld","3.3.6","[0, 5]","0","5","[2, 0]","2","0","0","NA","NA","NA","NA","NA","NA","NA","NA","2","4","3","psycho","1024","2","48000","-16","experiment","1","odd","[[2, 0], [2, 1], [2, 2], [2, 3], [2, 4], [2, 5], [2, 6], [2, 7], [2, 8], [2, 9], [2, 10], [2, 11], [2, 12], [2, 13]]","88140.30289999982","88140.31549999982","88140.23799999995","88140.28730000019","NA","NA","NA","NA","NA","NA","NA","NA","1917.4964999997428","NA","NA","4259.960800000044","1921.5771999997742","NA","NA","NA","4667.255599999862","NA","NA","1917.2809000001507","4667.078800000127","NA","NA","NA","88140.32799999995","NA","NA","NA","NA","NA","4620.535600000039","NA","Experiment1","yes","1024"
"[A1]","Feather.png","Acorn.png","Flower.png","[B1]","BlackBerries.png","Mouse.png","Log.png","   ResponsesA  ResponsesB  ResponsesX
0           5           6           5","Diamond.png","5","6","5","    ResponsesA  ResponsesB  ResponsesX
0            4           3           4
1            3           4           3
2            3           2           3
3            4           3           2
4            4           5           4
5            5           4           5
6            6           6           6
7            5           5           5
8            0           0           8
9            5           6           4
10           6           5           6
11           5           6           5
12           6           5           6
13           5           6           5","Empty DataFrame
Columns: [ResponsesA, ResponsesB, ResponsesX]
Index: []","Empty DataFrame
Columns: [ResponsesA, ResponsesB, ResponsesX]
Index: []","[B1]","[X1]","<libopensesame.widgets.widget_factory.Label object at 0x000002021B374FC8>","<libopensesame.widgets.widget_factory.Label object at 0x0000020215CB7CC8>","<libopensesame.widgets.widget_factory.Label object at 0x0000020215CB7B88>","<libopensesame.widgets.widget_factory.Label object at 0x000002021B4F1B88>","<libopensesame.widgets.widget_factory.Label object at 0x000002021B4F1C48>","<libopensesame.widgets.widget_factory.Label object at 0x000002021B4F1308>","<libopensesame.widgets.widget_factory.Label object at 0x000002021B4F1A08>","<libopensesame.widgets.widget_factory.Label object at 0x000002021B4F1C08>","<libopensesame.widgets.widget_factory.Label object at 0x000002021B374408>","<libopensesame.widgets.widget_factory.Label object at 0x000002021B374608>","<libopensesame.widgets.widget_factory.Label object at 0x000002021BD68C08>","<libopensesame.widgets.widget_factory.Label object at 0x000002021BD68208>","<libopensesame.widgets.widget_factory.Label object at 0x000002021BD689C8>","<libopensesame.widgets.widget_factory.Label object at 0x000002021BD68088>","<libopensesame.widgets.widget_factory.Label object at 0x000002021B4EF988>","<libopensesame.widgets.widget_factory.Label object at 0x000002021B4EF088>","14","[X1]","Footprints.png","Beetle.png","Puddle.png","#f1f1f1","0","1","2","psycho","psycho","psycho","0","uniform","13","13","13","13","NA","NA","NA","NA","NA","NA","NA","NA","0","0","0","0","0","NA","0","0","0","0","0","0","0","NA","NA","0","13","NA","NA","NA","NA","NA","0","NA","Fri Jan 22 09:52:19 2021","The main experiment item","yes","","Experiment1.osexp","C:\Users\Sanne\Dropbox\MasterProject\Experiments","no","mono","no","18","no","#000000","no","Next","no","768","6","5","psycho","6","13","13","0","[[0, 0], [0, 1], [0, 2], [0, 3], [0, 4], [0, 5], [0, 6], [0, 7], [0, 8], [0, 9], [0, 10], [0, 11], [0, 12], [0, 13], [2, 0], [2, 1], [2, 2], [2, 3], [2, 4], [2, 5], [2, 6], [2, 7], [2, 8], [2, 9], [2, 10], [2, 11], [2, 12], [2, 13]]","C:/Users/Sanne/Dropbox/MasterProject/Experiments/subj/subject-1.csv","psycho","Lentiform Loewenfeld","3.3.6","[0, 3]","0","3","[2, 2]","2","2","0","NA","NA","NA","NA","NA","NA","NA","NA","2","4","4","psycho","1024","2","48000","-16","experiment","1","odd","[[2, 0], [2, 1], [2, 2], [2, 3], [2, 4], [2, 5], [2, 6], [2, 7], [2, 8], [2, 9], [2, 10], [2, 11], [2, 12], [2, 13]]","93828.53369999975","93828.54599999974","93828.38149999997","93828.5163999999","NA","NA","NA","NA","NA","NA","NA","NA","1917.4964999997428","NA","NA","4259.960800000044","1921.5771999997742","NA","NA","NA","4667.255599999862","NA","NA","1917.2809000001507","4667.078800000127","NA","NA","NA","93828.55870000002","NA","NA","NA","NA","NA","4620.535600000039","NA","Experiment1","yes","1024"
"[A1]","Feather.png","Acorn.png","Flower.png","[B1]","BlackBerries.png","Mouse.png","Log.png","   ResponsesA  ResponsesB  ResponsesX
0           6           6           6","Diamond.png","6","6","6","    ResponsesA  ResponsesB  ResponsesX
0            4           3           4
1            3           4           3
2            3           2           3
3            4           3           2
4            4           5           4
5            5           4           5
6            6           6           6
7            5           5           5
8            0           0           8
9            5           6           4
10           6           5           6
11           5           6           5
12           6           5           6
13           5           6           5
14           6           6           6","Empty DataFrame
Columns: [ResponsesA, ResponsesB, ResponsesX]
Index: []","Empty DataFrame
Columns: [ResponsesA, ResponsesB, ResponsesX]
Index: []","[A1]","[X1]","<libopensesame.widgets.widget_factory.Label object at 0x000002021BD72348>","<libopensesame.widgets.widget_factory.Label object at 0x0000020215C9F348>","<libopensesame.widgets.widget_factory.Label object at 0x0000020215C9F0C8>","<libopensesame.widgets.widget_factory.Label object at 0x0000020215C9F488>","<libopensesame.widgets.widget_factory.Label object at 0x0000020215C9F088>","<libopensesame.widgets.widget_factory.Label object at 0x0000020214D14AC8>","<libopensesame.widgets.widget_factory.Label object at 0x0000020214D14088>","<libopensesame.widgets.widget_factory.Label object at 0x0000020214D14588>","<libopensesame.widgets.widget_factory.Label object at 0x000002021BD72808>","<libopensesame.widgets.widget_factory.Label object at 0x000002021BD727C8>","<libopensesame.widgets.widget_factory.Label object at 0x0000020214E92848>","<libopensesame.widgets.widget_factory.Label object at 0x0000020214E92688>","<libopensesame.widgets.widget_factory.Label object at 0x0000020215C9F608>","<libopensesame.widgets.widget_factory.Label object at 0x0000020215C9F5C8>","<libopensesame.widgets.widget_factory.Label object at 0x0000020215C9F688>","<libopensesame.widgets.widget_factory.Label object at 0x0000020215C9F2C8>","15","[X1]","Footprints.png","Beetle.png","Puddle.png","#f1f1f1","0","1","2","psycho","psycho","psycho","0","uniform","14","14","14","14","NA","NA","NA","NA","NA","NA","NA","NA","0","0","0","0","0","NA","0","0","0","0","0","0","0","NA","NA","0","14","NA","NA","NA","NA","NA","0","NA","Fri Jan 22 09:52:19 2021","The main experiment item","yes","","Experiment1.osexp","C:\Users\Sanne\Dropbox\MasterProject\Experiments","no","mono","no","18","no","#000000","no","Next","no","768","5","6","psycho","5","14","14","0","[[0, 0], [0, 1], [0, 2], [0, 3], [0, 4], [0, 5], [0, 6], [0, 7], [0, 8], [0, 9], [0, 10], [0, 11], [0, 12], [0, 13], [2, 0], [2, 1], [2, 2], [2, 3], [2, 4], [2, 5], [2, 6], [2, 7], [2, 8], [2, 9], [2, 10], [2, 11], [2, 12], [2, 13]]","C:/Users/Sanne/Dropbox/MasterProject/Experiments/subj/subject-1.csv","psycho","Lentiform Loewenfeld","3.3.6","[2, 0]","2","0","[0, 0]","0","0","0","NA","NA","NA","NA","NA","NA","NA","NA","2","3","3","psycho","1024","2","48000","-16","experiment","1","odd","[[0, 0], [0, 1], [0, 2], [0, 3], [0, 4], [0, 5], [0, 6], [0, 7], [0, 8], [0, 9], [0, 10], [0, 11], [0, 12], [0, 13]]","99162.85449999987","99162.86730000001","99162.60680000005","99162.83710000016","NA","NA","NA","NA","NA","NA","NA","NA","1917.4964999997428","NA","NA","4259.960800000044","1921.5771999997742","NA","NA","NA","4667.255599999862","NA","NA","1917.2809000001507","4667.078800000127","NA","NA","NA","99162.88010000017","NA","NA","NA","NA","NA","4620.535600000039","NA","Experiment1","yes","1024"
"[A1]","Feather.png","Acorn.png","Flower.png","[B1]","BlackBerries.png","Mouse.png","Log.png","   ResponsesA  ResponsesB  ResponsesX
0           4           5           5","NoDiamond.png","4","5","5","    ResponsesA  ResponsesB  ResponsesX
0            4           3           4
1            3           4           3
2            3           2           3
3            4           3           2
4            4           5           4
5            5           4           5
6            6           6           6
7            5           5           5
8            0           0           8
9            5           6           4
10           6           5           6
11           5           6           5
12           6           5           6
13           5           6           5
14           6           6           6
15           4           5           5","Empty DataFrame
Columns: [ResponsesA, ResponsesB, ResponsesX]
Index: []","Empty DataFrame
Columns: [ResponsesA, ResponsesB, ResponsesX]
Index: []","[B1]","[X1]","<libopensesame.widgets.widget_factory.Label object at 0x000002021C1F4C48>","<libopensesame.widgets.widget_factory.Label object at 0x0000020214E82308>","<libopensesame.widgets.widget_factory.Label object at 0x0000020214E82548>","<libopensesame.widgets.widget_factory.Label object at 0x0000020214E82F88>","<libopensesame.widgets.widget_factory.Label object at 0x0000020214E82FC8>","<libopensesame.widgets.widget_factory.Label object at 0x0000020215C56048>","<libopensesame.widgets.widget_factory.Label object at 0x0000020215C566C8>","<libopensesame.widgets.widget_factory.Label object at 0x0000020215C56508>","<libopensesame.widgets.widget_factory.Label object at 0x000002021B251308>","<libopensesame.widgets.widget_factory.Label object at 0x000002021B2513C8>","<libopensesame.widgets.widget_factory.Label object at 0x000002021B251C88>","<libopensesame.widgets.widget_factory.Label object at 0x0000020214E82D08>","<libopensesame.widgets.widget_factory.Label object at 0x0000020214E82D88>","<libopensesame.widgets.widget_factory.Label object at 0x0000020214E82408>","<libopensesame.widgets.widget_factory.Label object at 0x0000020214E82EC8>","<libopensesame.widgets.widget_factory.Label object at 0x0000020214E82D48>","16","[X1]","Footprints.png","Beetle.png","Puddle.png","#f1f1f1","0","1","2","psycho","psycho","psycho","0","uniform","15","15","15","15","NA","NA","NA","NA","NA","NA","NA","NA","0","0","0","0","0","NA","0","0","0","0","0","0","0","NA","NA","0","15","NA","NA","NA","NA","NA","0","NA","Fri Jan 22 09:52:19 2021","The main experiment item","yes","","Experiment1.osexp","C:\Users\Sanne\Dropbox\MasterProject\Experiments","no","mono","no","18","no","#000000","no","Next","no","768","6","6","psycho","6","15","15","0","[[0, 0], [0, 1], [0, 2], [0, 3], [0, 4], [0, 5], [0, 6], [0, 7], [0, 8], [0, 9], [0, 10], [0, 11], [0, 12], [0, 13], [2, 0], [2, 1], [2, 2], [2, 3], [2, 4], [2, 5], [2, 6], [2, 7], [2, 8], [2, 9], [2, 10], [2, 11], [2, 12], [2, 13]]","C:/Users/Sanne/Dropbox/MasterProject/Experiments/subj/subject-1.csv","psycho","Lentiform Loewenfeld","3.3.6","[2, 4]","2","4","[0, 1]","0","1","0","NA","NA","NA","NA","NA","NA","NA","NA","2","4","4","psycho","1024","2","48000","-16","experiment","1","odd","[[0, 0], [0, 1], [0, 2], [0, 3], [0, 4], [0, 5], [0, 6], [0, 7], [0, 8], [0, 9], [0, 10], [0, 11], [0, 12], [0, 13]]","104920.8878999998","104920.90109999981","104920.8180999999","104920.87119999997","NA","NA","NA","NA","NA","NA","NA","NA","1917.4964999997428","NA","NA","4259.960800000044","1921.5771999997742","NA","NA","NA","4667.255599999862","NA","NA","1917.2809000001507","4667.078800000127","NA","NA","NA","104920.91449999998","NA","NA","NA","NA","NA","4620.535600000039","NA","Experiment1","yes","1024"
"[A2]","Feather.png","Acorn.png","Flower.png","[B2]","BlackBerries.png","Mouse.png","Log.png","   ResponsesA  ResponsesB  ResponsesX
0           6           5           6","Diamond.png","6","5","6","    ResponsesA  ResponsesB  ResponsesX
0            4           3           4
1            3           4           3
2            3           2           3
3            4           3           2
4            4           5           4
5            5           4           5
6            6           6           6
7            5           5           5
8            0           0           8
9            5           6           4
10           6           5           6
11           5           6           5
12           6           5           6
13           5           6           5
14           6           6           6
15           4           5           5","   ResponsesA  ResponsesB  ResponsesX
0           6           5           6","Empty DataFrame
Columns: [ResponsesA, ResponsesB, ResponsesX]
Index: []","[A2]","[X2]","<libopensesame.widgets.widget_factory.Label object at 0x000002021BD65B88>","<libopensesame.widgets.widget_factory.Label object at 0x000002021B251748>","<libopensesame.widgets.widget_factory.Label object at 0x000002021B251088>","<libopensesame.widgets.widget_factory.Label object at 0x000002021B2518C8>","<libopensesame.widgets.widget_factory.Label object at 0x000002021B251188>","<libopensesame.widgets.widget_factory.Label object at 0x000002021B251388>","<libopensesame.widgets.widget_factory.Label object at 0x000002021B251548>","<libopensesame.widgets.widget_factory.Label object at 0x000002021B251CC8>","<libopensesame.widgets.widget_factory.Label object at 0x000002021BD65708>","<libopensesame.widgets.widget_factory.Label object at 0x000002021B251308>","<libopensesame.widgets.widget_factory.Label object at 0x000002021B2511C8>","<libopensesame.widgets.widget_factory.Label object at 0x000002021B251F08>","<libopensesame.widgets.widget_factory.Label object at 0x000002021B251D08>","<libopensesame.widgets.widget_factory.Label object at 0x000002021B251408>","<libopensesame.widgets.widget_factory.Label object at 0x000002021B251508>","<libopensesame.widgets.widget_factory.Label object at 0x000002021B251248>","1","[X2]","Footprints.png","Beetle.png","Puddle.png","#f1f1f1","0","1","2","psycho","psycho","psycho","0","uniform","15","15","15","15","0","0","0","0","NA","NA","NA","NA","0","0","1","0","0","NA","0","0","1","1","1","0","1","NA","NA","1","15","0","NA","NA","NA","NA","0","NA","Fri Jan 22 09:52:19 2021","The main experiment item","yes","","Experiment1.osexp","C:\Users\Sanne\Dropbox\MasterProject\Experiments","no","mono","no","18","no","#000000","no","Next","no","768","6","6","psycho","6","0","15","1","[[0, 0], [0, 1], [0, 2], [0, 3], [0, 4], [0, 5], [0, 6], [0, 7], [0, 8], [0, 9], [0, 10], [0, 11], [0, 12], [0, 13], [2, 0], [2, 1], [2, 2], [2, 3], [2, 4], [2, 5], [2, 6], [2, 7], [2, 8], [2, 9], [2, 10], [2, 11], [2, 12], [2, 13]]","C:/Users/Sanne/Dropbox/MasterProject/Experiments/subj/subject-1.csv","psycho","Lentiform Loewenfeld","3.3.6","[2, 11]","2","11","[0, 7]","0","7","0","NA","NA","NA","NA","NA","NA","NA","NA","2","4","4","psycho","1024","2","48000","-16","experiment","1","odd","[[0, 0], [0, 1], [0, 2], [0, 3], [0, 4], [0, 5], [0, 6], [0, 7], [0, 8], [0, 9], [0, 10], [0, 11], [0, 12], [0, 13]]","104920.8878999998","104920.90109999981","104920.8180999999","104920.87119999997","112126.60589999997","112126.61789999992","112126.54199999997","112126.5902","NA","NA","NA","NA","1917.4964999997428","NA","105010.63799999974","4259.960800000044","1921.5771999997742","NA","NA","NA","4667.255599999862","106491.69940000001","NA","1917.2809000001507","106491.44220000017","NA","NA","NA","104920.91449999998","112126.63539999994","NA","NA","NA","NA","4620.535600000039","NA","Experiment1","yes","1024"
"[A2]","Feather.png","Acorn.png","Flower.png","[B2]","BlackBerries.png","Mouse.png","Log.png","   ResponsesA  ResponsesB  ResponsesX
0           6           7           6","NoDiamond.png","6","7","6","    ResponsesA  ResponsesB  ResponsesX
0            4           3           4
1            3           4           3
2            3           2           3
3            4           3           2
4            4           5           4
5            5           4           5
6            6           6           6
7            5           5           5
8            0           0           8
9            5           6           4
10           6           5           6
11           5           6           5
12           6           5           6
13           5           6           5
14           6           6           6
15           4           5           5","   ResponsesA  ResponsesB  ResponsesX
0           6           5           6
1           6           7           6","Empty DataFrame
Columns: [ResponsesA, ResponsesB, ResponsesX]
Index: []","[B2]","[X2]","<libopensesame.widgets.widget_factory.Label object at 0x0000020214E92BC8>","<libopensesame.widgets.widget_factory.Label object at 0x00000202145D9988>","<libopensesame.widgets.widget_factory.Label object at 0x00000202145D93C8>","<libopensesame.widgets.widget_factory.Label object at 0x00000202145D95C8>","<libopensesame.widgets.widget_factory.Label object at 0x00000202145D9808>","<libopensesame.widgets.widget_factory.Label object at 0x00000202145D9388>","<libopensesame.widgets.widget_factory.Label object at 0x00000202145D9888>","<libopensesame.widgets.widget_factory.Label object at 0x00000202145D9B88>","<libopensesame.widgets.widget_factory.Label object at 0x0000020214E92148>","<libopensesame.widgets.widget_factory.Label object at 0x000002021AAA5048>","<libopensesame.widgets.widget_factory.Label object at 0x000002021AAA5688>","<libopensesame.widgets.widget_factory.Label object at 0x000002021AAA5348>","<libopensesame.widgets.widget_factory.Label object at 0x00000202145D90C8>","<libopensesame.widgets.widget_factory.Label object at 0x00000202145D9D88>","<libopensesame.widgets.widget_factory.Label object at 0x00000202145D9748>","<libopensesame.widgets.widget_factory.Label object at 0x00000202145D9EC8>","2","[X2]","Footprints.png","Beetle.png","Puddle.png","#f1f1f1","0","1","2","psycho","psycho","psycho","0","uniform","15","15","15","15","1","1","1","1","NA","NA","NA","NA","0","0","1","0","0","NA","0","0","1","1","1","0","1","NA","NA","1","15","1","NA","NA","NA","NA","0","NA","Fri Jan 22 09:52:19 2021","The main experiment item","yes","","Experiment1.osexp","C:\Users\Sanne\Dropbox\MasterProject\Experiments","no","mono","no","18","no","#000000","no","Next","no","768","6","5","psycho","6","1","15","1","[[0, 0], [0, 1], [0, 2], [0, 3], [0, 4], [0, 5], [0, 6], [0, 7], [0, 8], [0, 9], [0, 10], [0, 11], [0, 12], [0, 13], [2, 0], [2, 1], [2, 2], [2, 3], [2, 4], [2, 5], [2, 6], [2, 7], [2, 8], [2, 9], [2, 10], [2, 11], [2, 12], [2, 13]]","C:/Users/Sanne/Dropbox/MasterProject/Experiments/subj/subject-1.csv","psycho","Lentiform Loewenfeld","3.3.6","[0, 5]","0","5","[2, 3]","2","3","0","NA","NA","NA","NA","NA","NA","NA","NA","2","4","4","psycho","1024","2","48000","-16","experiment","1","odd","[[2, 0], [2, 1], [2, 2], [2, 3], [2, 4], [2, 5], [2, 6], [2, 7], [2, 8], [2, 9], [2, 10], [2, 11], [2, 12], [2, 13]]","104920.8878999998","104920.90109999981","104920.8180999999","104920.87119999997","118148.53260000018","118148.54590000004","118148.46279999983","118148.51569999973","NA","NA","NA","NA","1917.4964999997428","NA","105010.63799999974","4259.960800000044","1921.5771999997742","NA","NA","NA","4667.255599999862","106491.69940000001","NA","1917.2809000001507","106491.44220000017","NA","NA","NA","104920.91449999998","118148.5591999999","NA","NA","NA","NA","4620.535600000039","NA","Experiment1","yes","1024"
"[A2]","Feather.png","Acorn.png","Flower.png","[B2]","BlackBerries.png","Mouse.png","Log.png","   ResponsesA  ResponsesB  ResponsesX
0           6           7           6","Diamond.png","6","7","6","    ResponsesA  ResponsesB  ResponsesX
0            4           3           4
1            3           4           3
2            3           2           3
3            4           3           2
4            4           5           4
5            5           4           5
6            6           6           6
7            5           5           5
8            0           0           8
9            5           6           4
10           6           5           6
11           5           6           5
12           6           5           6
13           5           6           5
14           6           6           6
15           4           5           5","   ResponsesA  ResponsesB  ResponsesX
0           6           5           6
1           6           7           6
2           6           7           6","Empty DataFrame
Columns: [ResponsesA, ResponsesB, ResponsesX]
Index: []","[B2]","[X2]","<libopensesame.widgets.widget_factory.Label object at 0x0000020214D14DC8>","<libopensesame.widgets.widget_factory.Label object at 0x0000020214E8D7C8>","<libopensesame.widgets.widget_factory.Label object at 0x0000020214E8D3C8>","<libopensesame.widgets.widget_factory.Label object at 0x0000020215CB7FC8>","<libopensesame.widgets.widget_factory.Label object at 0x0000020215CB7C48>","<libopensesame.widgets.widget_factory.Label object at 0x0000020215CB7608>","<libopensesame.widgets.widget_factory.Label object at 0x0000020215CB7948>","<libopensesame.widgets.widget_factory.Label object at 0x0000020215CB7988>","<libopensesame.widgets.widget_factory.Label object at 0x0000020214D14388>","<libopensesame.widgets.widget_factory.Label object at 0x0000020214D14908>","<libopensesame.widgets.widget_factory.Label object at 0x0000020214E82FC8>","<libopensesame.widgets.widget_factory.Label object at 0x0000020214E82BC8>","<libopensesame.widgets.widget_factory.Label object at 0x0000020214E82D88>","<libopensesame.widgets.widget_factory.Label object at 0x0000020214E82D08>","<libopensesame.widgets.widget_factory.Label object at 0x000002021330F388>","<libopensesame.widgets.widget_factory.Label object at 0x0000020214E8DCC8>","3","[X2]","Footprints.png","Beetle.png","Puddle.png","#f1f1f1","0","1","2","psycho","psycho","psycho","0","uniform","15","15","15","15","2","2","2","2","NA","NA","NA","NA","0","0","1","0","0","NA","0","0","1","1","1","0","1","NA","NA","1","15","2","NA","NA","NA","NA","0","NA","Fri Jan 22 09:52:19 2021","The main experiment item","yes","","Experiment1.osexp","C:\Users\Sanne\Dropbox\MasterProject\Experiments","no","mono","no","18","no","#000000","no","Next","no","768","6","7","psycho","6","2","15","1","[[0, 0], [0, 1], [0, 2], [0, 3], [0, 4], [0, 5], [0, 6], [0, 7], [0, 8], [0, 9], [0, 10], [0, 11], [0, 12], [0, 13], [2, 0], [2, 1], [2, 2], [2, 3], [2, 4], [2, 5], [2, 6], [2, 7], [2, 8], [2, 9], [2, 10], [2, 11], [2, 12], [2, 13]]","C:/Users/Sanne/Dropbox/MasterProject/Experiments/subj/subject-1.csv","psycho","Lentiform Loewenfeld","3.3.6","[0, 10]","0","10","[2, 3]","2","3","0","NA","NA","NA","NA","NA","NA","NA","NA","2","4","4","psycho","1024","2","48000","-16","experiment","1","odd","[[2, 0], [2, 1], [2, 2], [2, 3], [2, 4], [2, 5], [2, 6], [2, 7], [2, 8], [2, 9], [2, 10], [2, 11], [2, 12], [2, 13]]","104920.8878999998","104920.90109999981","104920.8180999999","104920.87119999997","124720.40149999975","124720.41390000004","124720.33980000015","124720.3857999998","NA","NA","NA","NA","1917.4964999997428","NA","105010.63799999974","4259.960800000044","1921.5771999997742","NA","NA","NA","4667.255599999862","106491.69940000001","NA","1917.2809000001507","106491.44220000017","NA","NA","NA","104920.91449999998","124720.42629999988","NA","NA","NA","NA","4620.535600000039","NA","Experiment1","yes","1024"
"[A2]","Feather.png","Acorn.png","Flower.png","[B2]","BlackBerries.png","Mouse.png","Log.png","   ResponsesA  ResponsesB  ResponsesX
0           5           4           5","Diamond.png","5","4","5","    ResponsesA  ResponsesB  ResponsesX
0            4           3           4
1            3           4           3
2            3           2           3
3            4           3           2
4            4           5           4
5            5           4           5
6            6           6           6
7            5           5           5
8            0           0           8
9            5           6           4
10           6           5           6
11           5           6           5
12           6           5           6
13           5           6           5
14           6           6           6
15           4           5           5","   ResponsesA  ResponsesB  ResponsesX
0           6           5           6
1           6           7           6
2           6           7           6
3           5           4           5","Empty DataFrame
Columns: [ResponsesA, ResponsesB, ResponsesX]
Index: []","[A2]","[X2]","<libopensesame.widgets.widget_factory.Label object at 0x000002021B472A88>","<libopensesame.widgets.widget_factory.Label object at 0x0000020214E92248>","<libopensesame.widgets.widget_factory.Label object at 0x0000020214E92848>","<libopensesame.widgets.widget_factory.Label object at 0x0000020214E92308>","<libopensesame.widgets.widget_factory.Label object at 0x0000020214E92488>","<libopensesame.widgets.widget_factory.Label object at 0x0000020214E92648>","<libopensesame.widgets.widget_factory.Label object at 0x0000020214E898C8>","<libopensesame.widgets.widget_factory.Label object at 0x00000202128F8108>","<libopensesame.widgets.widget_factory.Label object at 0x000002021BD68808>","<libopensesame.widgets.widget_factory.Label object at 0x000002021BD68288>","<libopensesame.widgets.widget_factory.Label object at 0x000002021BD68A08>","<libopensesame.widgets.widget_factory.Label object at 0x0000020215C566C8>","<libopensesame.widgets.widget_factory.Label object at 0x0000020215C56848>","<libopensesame.widgets.widget_factory.Label object at 0x0000020215C56048>","<libopensesame.widgets.widget_factory.Label object at 0x0000020215C562C8>","<libopensesame.widgets.widget_factory.Label object at 0x0000020214E92F08>","4","[X2]","Footprints.png","Beetle.png","Puddle.png","#f1f1f1","0","1","2","psycho","psycho","psycho","0","uniform","15","15","15","15","3","3","3","3","NA","NA","NA","NA","0","0","1","0","0","NA","0","0","1","1","1","0","1","NA","NA","1","15","3","NA","NA","NA","NA","0","NA","Fri Jan 22 09:52:19 2021","The main experiment item","yes","","Experiment1.osexp","C:\Users\Sanne\Dropbox\MasterProject\Experiments","no","mono","no","18","no","#000000","no","Next","no","768","6","7","psycho","6","3","15","1","[[0, 0], [0, 1], [0, 2], [0, 3], [0, 4], [0, 5], [0, 6], [0, 7], [0, 8], [0, 9], [0, 10], [0, 11], [0, 12], [0, 13], [2, 0], [2, 1], [2, 2], [2, 3], [2, 4], [2, 5], [2, 6], [2, 7], [2, 8], [2, 9], [2, 10], [2, 11], [2, 12], [2, 13]]","C:/Users/Sanne/Dropbox/MasterProject/Experiments/subj/subject-1.csv","psycho","Lentiform Loewenfeld","3.3.6","[0, 11]","0","11","[2, 11]","2","11","0","NA","NA","NA","NA","NA","NA","NA","NA","2","4","4","psycho","1024","2","48000","-16","experiment","1","odd","[[2, 0], [2, 1], [2, 2], [2, 3], [2, 4], [2, 5], [2, 6], [2, 7], [2, 8], [2, 9], [2, 10], [2, 11], [2, 12], [2, 13]]","104920.8878999998","104920.90109999981","104920.8180999999","104920.87119999997","131025.66109999998","131025.67670000007","131025.59599999995","131025.64440000015","NA","NA","NA","NA","1917.4964999997428","NA","105010.63799999974","4259.960800000044","1921.5771999997742","NA","NA","NA","4667.255599999862","106491.69940000001","NA","1917.2809000001507","106491.44220000017","NA","NA","NA","104920.91449999998","131025.69230000017","NA","NA","NA","NA","4620.535600000039","NA","Experiment1","yes","1024"
"[A2]","Feather.png","Acorn.png","Flower.png","[B2]","BlackBerries.png","Mouse.png","Log.png","   ResponsesA  ResponsesB  ResponsesX
0           5           5           5","NoDiamond.png","5","5","5","    ResponsesA  ResponsesB  ResponsesX
0            4           3           4
1            3           4           3
2            3           2           3
3            4           3           2
4            4           5           4
5            5           4           5
6            6           6           6
7            5           5           5
8            0           0           8
9            5           6           4
10           6           5           6
11           5           6           5
12           6           5           6
13           5           6           5
14           6           6           6
15           4           5           5","   ResponsesA  ResponsesB  ResponsesX
0           6           5           6
1           6           7           6
2           6           7           6
3           5           4           5
4           5           5           5","Empty DataFrame
Columns: [ResponsesA, ResponsesB, ResponsesX]
Index: []","[A2]","[X2]","<libopensesame.widgets.widget_factory.Label object at 0x000002021BD68248>","<libopensesame.widgets.widget_factory.Label object at 0x000002021B4E94C8>","<libopensesame.widgets.widget_factory.Label object at 0x0000020212010048>","<libopensesame.widgets.widget_factory.Label object at 0x0000020212010708>","<libopensesame.widgets.widget_factory.Label object at 0x0000020212010748>","<libopensesame.widgets.widget_factory.Label object at 0x0000020212010988>","<libopensesame.widgets.widget_factory.Label object at 0x0000020212010608>","<libopensesame.widgets.widget_factory.Label object at 0x0000020212010188>","<libopensesame.widgets.widget_factory.Label object at 0x00000202153670C8>","<libopensesame.widgets.widget_factory.Label object at 0x0000020215367548>","<libopensesame.widgets.widget_factory.Label object at 0x0000020215367AC8>","<libopensesame.widgets.widget_factory.Label object at 0x0000020215367B48>","<libopensesame.widgets.widget_factory.Label object at 0x0000020215367988>","<libopensesame.widgets.widget_factory.Label object at 0x0000020215367B08>","<libopensesame.widgets.widget_factory.Label object at 0x000002021B4E9288>","<libopensesame.widgets.widget_factory.Label object at 0x000002021B4E97C8>","5","[X2]","Footprints.png","Beetle.png","Puddle.png","#f1f1f1","0","1","2","psycho","psycho","psycho","0","uniform","15","15","15","15","4","4","4","4","NA","NA","NA","NA","0","0","1","0","0","NA","0","0","1","1","1","0","1","NA","NA","1","15","4","NA","NA","NA","NA","0","NA","Fri Jan 22 09:52:19 2021","The main experiment item","yes","","Experiment1.osexp","C:\Users\Sanne\Dropbox\MasterProject\Experiments","no","mono","no","18","no","#000000","no","Next","no","768","5","4","psycho","5","4","15","1","[[0, 0], [0, 1], [0, 2], [0, 3], [0, 4], [0, 5], [0, 6], [0, 7], [0, 8], [0, 9], [0, 10], [0, 11], [0, 12], [0, 13], [2, 0], [2, 1], [2, 2], [2, 3], [2, 4], [2, 5], [2, 6], [2, 7], [2, 8], [2, 9], [2, 10], [2, 11], [2, 12], [2, 13]]","C:/Users/Sanne/Dropbox/MasterProject/Experiments/subj/subject-1.csv","psycho","Lentiform Loewenfeld","3.3.6","[2, 4]","2","4","[0, 0]","0","0","0","NA","NA","NA","NA","NA","NA","NA","NA","2","4","3","psycho","1024","2","48000","-16","experiment","1","odd","[[0, 0], [0, 1], [0, 2], [0, 3], [0, 4], [0, 5], [0, 6], [0, 7], [0, 8], [0, 9], [0, 10], [0, 11], [0, 12], [0, 13]]","104920.8878999998","104920.90109999981","104920.8180999999","104920.87119999997","136813.62409999975","136813.6364000002","136813.56129999994","136813.60809999978","NA","NA","NA","NA","1917.4964999997428","NA","105010.63799999974","4259.960800000044","1921.5771999997742","NA","NA","NA","4667.255599999862","106491.69940000001","NA","1917.2809000001507","106491.44220000017","NA","NA","NA","104920.91449999998","136813.64889999985","NA","NA","NA","NA","4620.535600000039","NA","Experiment1","yes","1024"
"[A2]","Feather.png","Acorn.png","Flower.png","[B2]","BlackBerries.png","Mouse.png","Log.png","   ResponsesA  ResponsesB  ResponsesX
0           5           5           5","NoDiamond.png","5","5","5","    ResponsesA  ResponsesB  ResponsesX
0            4           3           4
1            3           4           3
2            3           2           3
3            4           3           2
4            4           5           4
5            5           4           5
6            6           6           6
7            5           5           5
8            0           0           8
9            5           6           4
10           6           5           6
11           5           6           5
12           6           5           6
13           5           6           5
14           6           6           6
15           4           5           5","   ResponsesA  ResponsesB  ResponsesX
0           6           5           6
1           6           7           6
2           6           7           6
3           5           4           5
4           5           5           5
5           5           5           5","Empty DataFrame
Columns: [ResponsesA, ResponsesB, ResponsesX]
Index: []","[B2]","[X2]","<libopensesame.widgets.widget_factory.Label object at 0x0000020214656A88>","<libopensesame.widgets.widget_factory.Label object at 0x00000202152536C8>","<libopensesame.widgets.widget_factory.Label object at 0x00000202152532C8>","<libopensesame.widgets.widget_factory.Label object at 0x00000202152D1848>","<libopensesame.widgets.widget_factory.Label object at 0x00000202152D1D88>","<libopensesame.widgets.widget_factory.Label object at 0x00000202152D1448>","<libopensesame.widgets.widget_factory.Label object at 0x00000202152D1508>","<libopensesame.widgets.widget_factory.Label object at 0x00000202152D1D48>","<libopensesame.widgets.widget_factory.Label object at 0x0000020214656D48>","<libopensesame.widgets.widget_factory.Label object at 0x0000020214656848>","<libopensesame.widgets.widget_factory.Label object at 0x0000020214656508>","<libopensesame.widgets.widget_factory.Label object at 0x0000020214656F48>","<libopensesame.widgets.widget_factory.Label object at 0x0000020215253148>","<libopensesame.widgets.widget_factory.Label object at 0x0000020215253F08>","<libopensesame.widgets.widget_factory.Label object at 0x0000020215253188>","<libopensesame.widgets.widget_factory.Label object at 0x0000020215253448>","6","[X2]","Footprints.png","Beetle.png","Puddle.png","#f1f1f1","0","1","2","psycho","psycho","psycho","0","uniform","15","15","15","15","5","5","5","5","NA","NA","NA","NA","0","0","1","0","0","NA","0","0","1","1","1","0","1","NA","NA","1","15","5","NA","NA","NA","NA","0","NA","Fri Jan 22 09:52:19 2021","The main experiment item","yes","","Experiment1.osexp","C:\Users\Sanne\Dropbox\MasterProject\Experiments","no","mono","no","18","no","#000000","no","Next","no","768","5","5","psycho","5","5","15","1","[[0, 0], [0, 1], [0, 2], [0, 3], [0, 4], [0, 5], [0, 6], [0, 7], [0, 8], [0, 9], [0, 10], [0, 11], [0, 12], [0, 13], [2, 0], [2, 1], [2, 2], [2, 3], [2, 4], [2, 5], [2, 6], [2, 7], [2, 8], [2, 9], [2, 10], [2, 11], [2, 12], [2, 13]]","C:/Users/Sanne/Dropbox/MasterProject/Experiments/subj/subject-1.csv","psycho","Lentiform Loewenfeld","3.3.6","[2, 11]","2","11","[0, 4]","0","4","0","NA","NA","NA","NA","NA","NA","NA","NA","2","4","4","psycho","1024","2","48000","-16","experiment","1","odd","[[0, 0], [0, 1], [0, 2], [0, 3], [0, 4], [0, 5], [0, 6], [0, 7], [0, 8], [0, 9], [0, 10], [0, 11], [0, 12], [0, 13]]","104920.8878999998","104920.90109999981","104920.8180999999","104920.87119999997","142768.73089999982","142768.7434999998","142768.6306999999","142768.7139999998","NA","NA","NA","NA","1917.4964999997428","NA","105010.63799999974","4259.960800000044","1921.5771999997742","NA","NA","NA","4667.255599999862","106491.69940000001","NA","1917.2809000001507","106491.44220000017","NA","NA","NA","104920.91449999998","142768.75629999995","NA","NA","NA","NA","4620.535600000039","NA","Experiment1","yes","1024"
"[A2]","Feather.png","Acorn.png","Flower.png","[B2]","BlackBerries.png","Mouse.png","Log.png","   ResponsesA  ResponsesB  ResponsesX
0           6           6           6","Diamond.png","6","6","6","    ResponsesA  ResponsesB  ResponsesX
0            4           3           4
1            3           4           3
2            3           2           3
3            4           3           2
4            4           5           4
5            5           4           5
6            6           6           6
7            5           5           5
8            0           0           8
9            5           6           4
10           6           5           6
11           5           6           5
12           6           5           6
13           5           6           5
14           6           6           6
15           4           5           5","   ResponsesA  ResponsesB  ResponsesX
0           6           5           6
1           6           7           6
2           6           7           6
3           5           4           5
4           5           5           5
5           5           5           5
6           6           6           6","Empty DataFrame
Columns: [ResponsesA, ResponsesB, ResponsesX]
Index: []","[A2]","[X2]","<libopensesame.widgets.widget_factory.Label object at 0x000002021BD6C288>","<libopensesame.widgets.widget_factory.Label object at 0x000002021AAA5CC8>","<libopensesame.widgets.widget_factory.Label object at 0x000002021AAA52C8>","<libopensesame.widgets.widget_factory.Label object at 0x000002021AAA5A08>","<libopensesame.widgets.widget_factory.Label object at 0x000002021AAA5648>","<libopensesame.widgets.widget_factory.Label object at 0x000002021AAA5948>","<libopensesame.widgets.widget_factory.Label object at 0x000002021AAA5088>","<libopensesame.widgets.widget_factory.Label object at 0x000002021AAA5708>","<libopensesame.widgets.widget_factory.Label object at 0x00000202152D1F48>","<libopensesame.widgets.widget_factory.Label object at 0x00000202152D1208>","<libopensesame.widgets.widget_factory.Label object at 0x0000020212008308>","<libopensesame.widgets.widget_factory.Label object at 0x0000020212008708>","<libopensesame.widgets.widget_factory.Label object at 0x0000020215A5D148>","<libopensesame.widgets.widget_factory.Label object at 0x0000020215A5D188>","<libopensesame.widgets.widget_factory.Label object at 0x0000020215A5D888>","<libopensesame.widgets.widget_factory.Label object at 0x000002021AAA5C08>","7","[X2]","Footprints.png","Beetle.png","Puddle.png","#f1f1f1","0","1","2","psycho","psycho","psycho","0","uniform","15","15","15","15","6","6","6","6","NA","NA","NA","NA","0","0","1","0","0","NA","0","0","1","1","1","0","1","NA","NA","1","15","6","NA","NA","NA","NA","0","NA","Fri Jan 22 09:52:19 2021","The main experiment item","yes","","Experiment1.osexp","C:\Users\Sanne\Dropbox\MasterProject\Experiments","no","mono","no","18","no","#000000","no","Next","no","768","5","5","psycho","5","6","15","1","[[0, 0], [0, 1], [0, 2], [0, 3], [0, 4], [0, 5], [0, 6], [0, 7], [0, 8], [0, 9], [0, 10], [0, 11], [0, 12], [0, 13], [2, 0], [2, 1], [2, 2], [2, 3], [2, 4], [2, 5], [2, 6], [2, 7], [2, 8], [2, 9], [2, 10], [2, 11], [2, 12], [2, 13]]","C:/Users/Sanne/Dropbox/MasterProject/Experiments/subj/subject-1.csv","psycho","Lentiform Loewenfeld","3.3.6","[2, 13]","2","13","[0, 4]","0","4","0","NA","NA","NA","NA","NA","NA","NA","NA","2","4","4","psycho","1024","2","48000","-16","experiment","1","odd","[[0, 0], [0, 1], [0, 2], [0, 3], [0, 4], [0, 5], [0, 6], [0, 7], [0, 8], [0, 9], [0, 10], [0, 11], [0, 12], [0, 13]]","104920.8878999998","104920.90109999981","104920.8180999999","104920.87119999997","148456.57080000002","148456.58300000013","148456.50509999995","148456.55480000004","NA","NA","NA","NA","1917.4964999997428","NA","105010.63799999974","4259.960800000044","1921.5771999997742","NA","NA","NA","4667.255599999862","106491.69940000001","NA","1917.2809000001507","106491.44220000017","NA","NA","NA","104920.91449999998","148456.59620000015","NA","NA","NA","NA","4620.535600000039","NA","Experiment1","yes","1024"
"[A2]","Feather.png","Acorn.png","Flower.png","[B2]","BlackBerries.png","Mouse.png","Log.png","   ResponsesA  ResponsesB  ResponsesX
0           7           7           7","NoDiamond.png","7","7","7","    ResponsesA  ResponsesB  ResponsesX
0            4           3           4
1            3           4           3
2            3           2           3
3            4           3           2
4            4           5           4
5            5           4           5
6            6           6           6
7            5           5           5
8            0           0           8
9            5           6           4
10           6           5           6
11           5           6           5
12           6           5           6
13           5           6           5
14           6           6           6
15           4           5           5","   ResponsesA  ResponsesB  ResponsesX
0           6           5           6
1           6           7           6
2           6           7           6
3           5           4           5
4           5           5           5
5           5           5           5
6           6           6           6
7           7           7           7","Empty DataFrame
Columns: [ResponsesA, ResponsesB, ResponsesX]
Index: []","[B2]","[X2]","<libopensesame.widgets.widget_factory.Label object at 0x0000020214656308>","<libopensesame.widgets.widget_factory.Label object at 0x0000020214716E88>","<libopensesame.widgets.widget_factory.Label object at 0x0000020214716048>","<libopensesame.widgets.widget_factory.Label object at 0x0000020214716A88>","<libopensesame.widgets.widget_factory.Label object at 0x0000020214716748>","<libopensesame.widgets.widget_factory.Label object at 0x0000020214716848>","<libopensesame.widgets.widget_factory.Label object at 0x00000202152D1208>","<libopensesame.widgets.widget_factory.Label object at 0x00000202152D1F48>","<libopensesame.widgets.widget_factory.Label object at 0x0000020214656E08>","<libopensesame.widgets.widget_factory.Label object at 0x000002021C4CAF48>","<libopensesame.widgets.widget_factory.Label object at 0x000002021C4CA988>","<libopensesame.widgets.widget_factory.Label object at 0x000002021C4CAD48>","<libopensesame.widgets.widget_factory.Label object at 0x0000020214E90A08>","<libopensesame.widgets.widget_factory.Label object at 0x0000020214B3AAC8>","<libopensesame.widgets.widget_factory.Label object at 0x00000202147161C8>","<libopensesame.widgets.widget_factory.Label object at 0x0000020214716908>","8","[X2]","Footprints.png","Beetle.png","Puddle.png","#f1f1f1","0","1","2","psycho","psycho","psycho","0","uniform","15","15","15","15","7","7","7","7","NA","NA","NA","NA","0","0","1","0","0","NA","0","0","1","1","1","0","1","NA","NA","1","15","7","NA","NA","NA","NA","0","NA","Fri Jan 22 09:52:19 2021","The main experiment item","yes","","Experiment1.osexp","C:\Users\Sanne\Dropbox\MasterProject\Experiments","no","mono","no","18","no","#000000","no","Next","no","768","6","6","psycho","6","7","15","1","[[0, 0], [0, 1], [0, 2], [0, 3], [0, 4], [0, 5], [0, 6], [0, 7], [0, 8], [0, 9], [0, 10], [0, 11], [0, 12], [0, 13], [2, 0], [2, 1], [2, 2], [2, 3], [2, 4], [2, 5], [2, 6], [2, 7], [2, 8], [2, 9], [2, 10], [2, 11], [2, 12], [2, 13]]","C:/Users/Sanne/Dropbox/MasterProject/Experiments/subj/subject-1.csv","psycho","Lentiform Loewenfeld","3.3.6","[0, 4]","0","4","[2, 3]","2","3","0","NA","NA","NA","NA","NA","NA","NA","NA","2","4","4","psycho","1024","2","48000","-16","experiment","1","odd","[[2, 0], [2, 1], [2, 2], [2, 3], [2, 4], [2, 5], [2, 6], [2, 7], [2, 8], [2, 9], [2, 10], [2, 11], [2, 12], [2, 13]]","104920.8878999998","104920.90109999981","104920.8180999999","104920.87119999997","154261.4638","154261.47709999987","154261.39379999996","154261.44740000018","NA","NA","NA","NA","1917.4964999997428","NA","105010.63799999974","4259.960800000044","1921.5771999997742","NA","NA","NA","4667.255599999862","106491.69940000001","NA","1917.2809000001507","106491.44220000017","NA","NA","NA","104920.91449999998","154261.49080000006","NA","NA","NA","NA","4620.535600000039","NA","Experiment1","yes","1024"
"[A2]","Feather.png","Acorn.png","Flower.png","[B2]","BlackBerries.png","Mouse.png","Log.png","   ResponsesA  ResponsesB  ResponsesX
0           8           8           8","Diamond.png","8","8","8","    ResponsesA  ResponsesB  ResponsesX
0            4           3           4
1            3           4           3
2            3           2           3
3            4           3           2
4            4           5           4
5            5           4           5
6            6           6           6
7            5           5           5
8            0           0           8
9            5           6           4
10           6           5           6
11           5           6           5
12           6           5           6
13           5           6           5
14           6           6           6
15           4           5           5","   ResponsesA  ResponsesB  ResponsesX
0           6           5           6
1           6           7           6
2           6           7           6
3           5           4           5
4           5           5           5
5           5           5           5
6           6           6           6
7           7           7           7
8           8           8           8","Empty DataFrame
Columns: [ResponsesA, ResponsesB, ResponsesX]
Index: []","[B2]","[X2]","<libopensesame.widgets.widget_factory.Label object at 0x000002021B2518C8>","<libopensesame.widgets.widget_factory.Label object at 0x0000020214656D48>","<libopensesame.widgets.widget_factory.Label object at 0x0000020214656208>","<libopensesame.widgets.widget_factory.Label object at 0x0000020214656E48>","<libopensesame.widgets.widget_factory.Label object at 0x0000020214656608>","<libopensesame.widgets.widget_factory.Label object at 0x0000020214656148>","<libopensesame.widgets.widget_factory.Label object at 0x0000020215A5D208>","<libopensesame.widgets.widget_factory.Label object at 0x0000020215A5D808>","<libopensesame.widgets.widget_factory.Label object at 0x000002021B251708>","<libopensesame.widgets.widget_factory.Label object at 0x0000020214716608>","<libopensesame.widgets.widget_factory.Label object at 0x0000020214716348>","<libopensesame.widgets.widget_factory.Label object at 0x0000020214E90348>","<libopensesame.widgets.widget_factory.Label object at 0x000002021B374508>","<libopensesame.widgets.widget_factory.Label object at 0x000002021B3745C8>","<libopensesame.widgets.widget_factory.Label object at 0x0000020214656E08>","<libopensesame.widgets.widget_factory.Label object at 0x0000020214656308>","9","[X2]","Footprints.png","Beetle.png","Puddle.png","#f1f1f1","0","1","2","psycho","psycho","psycho","0","uniform","15","15","15","15","8","8","8","8","NA","NA","NA","NA","0","0","1","0","0","NA","0","0","1","1","1","0","1","NA","NA","1","15","8","NA","NA","NA","NA","0","NA","Fri Jan 22 09:52:19 2021","The main experiment item","yes","","Experiment1.osexp","C:\Users\Sanne\Dropbox\MasterProject\Experiments","no","mono","no","18","no","#000000","no","Next","no","768","7","7","psycho","7","8","15","1","[[0, 0], [0, 1], [0, 2], [0, 3], [0, 4], [0, 5], [0, 6], [0, 7], [0, 8], [0, 9], [0, 10], [0, 11], [0, 12], [0, 13], [2, 0], [2, 1], [2, 2], [2, 3], [2, 4], [2, 5], [2, 6], [2, 7], [2, 8], [2, 9], [2, 10], [2, 11], [2, 12], [2, 13]]","C:/Users/Sanne/Dropbox/MasterProject/Experiments/subj/subject-1.csv","psycho","Lentiform Loewenfeld","3.3.6","[2, 13]","2","13","[0, 9]","0","9","0","NA","NA","NA","NA","NA","NA","NA","NA","2","4","4","psycho","1024","2","48000","-16","experiment","1","odd","[[0, 0], [0, 1], [0, 2], [0, 3], [0, 4], [0, 5], [0, 6], [0, 7], [0, 8], [0, 9], [0, 10], [0, 11], [0, 12], [0, 13]]","104920.8878999998","104920.90109999981","104920.8180999999","104920.87119999997","159715.9112999998","159715.9243000001","159715.83849999978","159715.89390000008","NA","NA","NA","NA","1917.4964999997428","NA","105010.63799999974","4259.960800000044","1921.5771999997742","NA","NA","NA","4667.255599999862","106491.69940000001","NA","1917.2809000001507","106491.44220000017","NA","NA","NA","104920.91449999998","159715.93819999998","NA","NA","NA","NA","4620.535600000039","NA","Experiment1","yes","1024"
"[A2]","Feather.png","Acorn.png","Flower.png","[B2]","BlackBerries.png","Mouse.png","Log.png","   ResponsesA  ResponsesB  ResponsesX
0           7           7           7","Diamond.png","7","7","7","    ResponsesA  ResponsesB  ResponsesX
0            4           3           4
1            3           4           3
2            3           2           3
3            4           3           2
4            4           5           4
5            5           4           5
6            6           6           6
7            5           5           5
8            0           0           8
9            5           6           4
10           6           5           6
11           5           6           5
12           6           5           6
13           5           6           5
14           6           6           6
15           4           5           5","   ResponsesA  ResponsesB  ResponsesX
0           6           5           6
1           6           7           6
2           6           7           6
3           5           4           5
4           5           5           5
5           5           5           5
6           6           6           6
7           7           7           7
8           8           8           8
9           7           7           7","Empty DataFrame
Columns: [ResponsesA, ResponsesB, ResponsesX]
Index: []","[A2]","[X2]","<libopensesame.widgets.widget_factory.Label object at 0x000002021AAA5648>","<libopensesame.widgets.widget_factory.Label object at 0x000002021B251848>","<libopensesame.widgets.widget_factory.Label object at 0x000002021B251808>","<libopensesame.widgets.widget_factory.Label object at 0x000002021B251D88>","<libopensesame.widgets.widget_factory.Label object at 0x000002021B251C08>","<libopensesame.widgets.widget_factory.Label object at 0x0000020214E8D908>","<libopensesame.widgets.widget_factory.Label object at 0x0000020214E8D588>","<libopensesame.widgets.widget_factory.Label object at 0x0000020214E8DE08>","<libopensesame.widgets.widget_factory.Label object at 0x0000020211C5D2C8>","<libopensesame.widgets.widget_factory.Label object at 0x000002021B2518C8>","<libopensesame.widgets.widget_factory.Label object at 0x000002021B251688>","<libopensesame.widgets.widget_factory.Label object at 0x000002021B251CC8>","<libopensesame.widgets.widget_factory.Label object at 0x000002021B251588>","<libopensesame.widgets.widget_factory.Label object at 0x000002021B251488>","<libopensesame.widgets.widget_factory.Label object at 0x000002021B251E08>","<libopensesame.widgets.widget_factory.Label object at 0x000002021B251D48>","10","[X2]","Footprints.png","Beetle.png","Puddle.png","#f1f1f1","0","1","2","psycho","psycho","psycho","0","uniform","15","15","15","15","9","9","9","9","NA","NA","NA","NA","0","0","1","0","0","NA","0","0","1","1","1","0","1","NA","NA","1","15","9","NA","NA","NA","NA","0","NA","Fri Jan 22 09:52:19 2021","The main experiment item","yes","","Experiment1.osexp","C:\Users\Sanne\Dropbox\MasterProject\Experiments","no","mono","no","18","no","#000000","no","Next","no","768","8","8","psycho","8","9","15","1","[[0, 0], [0, 1], [0, 2], [0, 3], [0, 4], [0, 5], [0, 6], [0, 7], [0, 8], [0, 9], [0, 10], [0, 11], [0, 12], [0, 13], [2, 0], [2, 1], [2, 2], [2, 3], [2, 4], [2, 5], [2, 6], [2, 7], [2, 8], [2, 9], [2, 10], [2, 11], [2, 12], [2, 13]]","C:/Users/Sanne/Dropbox/MasterProject/Experiments/subj/subject-1.csv","psycho","Lentiform Loewenfeld","3.3.6","[2, 7]","2","7","[0, 4]","0","4","0","NA","NA","NA","NA","NA","NA","NA","NA","2","4","4","psycho","1024","2","48000","-16","experiment","1","odd","[[0, 0], [0, 1], [0, 2], [0, 3], [0, 4], [0, 5], [0, 6], [0, 7], [0, 8], [0, 9], [0, 10], [0, 11], [0, 12], [0, 13]]","104920.8878999998","104920.90109999981","104920.8180999999","104920.87119999997","165336.9735000001","165336.98670000012","165336.9035999999","165336.95660000012","NA","NA","NA","NA","1917.4964999997428","NA","105010.63799999974","4259.960800000044","1921.5771999997742","NA","NA","NA","4667.255599999862","106491.69940000001","NA","1917.2809000001507","106491.44220000017","NA","NA","NA","104920.91449999998","165337.00099999987","NA","NA","NA","NA","4620.535600000039","NA","Experiment1","yes","1024"
"[A2]","Feather.png","Acorn.png","Flower.png","[B2]","BlackBerries.png","Mouse.png","Log.png","   ResponsesA  ResponsesB  ResponsesX
0           8           8           8","NoDiamond.png","8","8","8","    ResponsesA  ResponsesB  ResponsesX
0            4           3           4
1            3           4           3
2            3           2           3
3            4           3           2
4            4           5           4
5            5           4           5
6            6           6           6
7            5           5           5
8            0           0           8
9            5           6           4
10           6           5           6
11           5           6           5
12           6           5           6
13           5           6           5
14           6           6           6
15           4           5           5","    ResponsesA  ResponsesB  ResponsesX
0            6           5           6
1            6           7           6
2            6           7           6
3            5           4           5
4            5           5           5
5            5           5           5
6            6           6           6
7            7           7           7
8            8           8           8
9            7           7           7
10           8           8           8","Empty DataFrame
Columns: [ResponsesA, ResponsesB, ResponsesX]
