"A","A1","A2","A3","B","B1","B2","B3","NewAnswers","Outcome","RatingA","RatingB","RatingX","Responses000","Responses050","Responses100","Stim1","Stim2","T1","T10","T11","T12","T13","T14","T15","T16","T2","T3","T4","T5","T6","T7","T8","T9","Trial","X","X1","X2","X3","background","block1","block2","block3","canvas_backend","clock_backend","color_backend","compensation","coordinates","count_Cond000Outcome","count_Cond000Sequence","count_Cond000Stim","count_Cond050Outcome","count_Cond050Sequence","count_Cond050Stim","count_Cond100Outcome","count_Cond100Sequence","count_Cond100Stim","count_Conditions_Stimuli","count_Current_Problems","count_Explanation","count_Introduction","count_Stimuli","count_Testphaseintro","count_To_dos","count__000","count__050","count__100","count_experiment","count_main_sequence","count_new_form_text_display","count_new_logger","count_new_logger_1","count_new_logger_1_1","count_new_sketchpad_1","count_new_sketchpad_2","count_test_phase","count_training_phase","count_welcome","datetime","description","disable_garbage_collection","empty_column","experiment_file","experiment_path","font_bold","font_family","font_italic","font_size","font_underline","foreground","form_clicks","form_response","fullscreen","height","j","k","keyboard_backend","l","live_row","live_row__000","live_row_training_phase","locations","logfile","mouse_backend","opensesame_codename","opensesame_version","pos1","pos1X","pos1Y","pos2","pos2X","pos2Y","repeat_cycle","response","response_new_sketchpad_1","response_new_sketchpad_2","response_time","response_time_new_sketchpad_1","response_time_new_sketchpad_2","response_time_welcome","response_welcome","round_decimals","rs1","rs2","sampler_backend","sound_buf_size","sound_channels","sound_freq","sound_sample_size","start","subject_nr","subject_parity","temp","time_Cond000Outcome","time_Cond000Sequence","time_Cond000Stim","time_Cond050Outcome","time_Cond050Sequence","time_Cond050Stim","time_Cond100Outcome","time_Cond100Sequence","time_Cond100Stim","time_Conditions_Stimuli","time_Current_Problems","time_Explanation","time_Introduction","time_Stimuli","time_Testphaseintro","time_To_dos","time__000","time__050","time__100","time_experiment","time_main_sequence","time_new_form_text_display","time_new_logger","time_new_logger_1","time_new_logger_1_1","time_new_sketchpad_1","time_new_sketchpad_2","time_test_phase","time_training_phase","time_welcome","title","uniform_coordinates","width"
"[A1]","Log.png","Acorn.png","Flower.png","[B1]","BlackBerries.png","Footprints.png","Puddle.png","   ResponsesA  ResponsesB  ResponsesX
0           3           4           2","Diamond.png","3","4","2","   ResponsesA  ResponsesB  ResponsesX
0           3           4           2","Empty DataFrame
Columns: [ResponsesA, ResponsesB, ResponsesX]
Index: []","Empty DataFrame
Columns: [ResponsesA, ResponsesB, ResponsesX]
Index: []","[A1]","[X1]","<libopensesame.widgets.widget_factory.Label object at 0x0000023CDBD5FF48>","<libopensesame.widgets.widget_factory.Label object at 0x0000023CDBD70088>","<libopensesame.widgets.widget_factory.Label object at 0x0000023CDBD70148>","<libopensesame.widgets.widget_factory.Label object at 0x0000023CDBD70AC8>","<libopensesame.widgets.widget_factory.Label object at 0x0000023CDBD70248>","<libopensesame.widgets.widget_factory.Label object at 0x0000023CDBD703C8>","<libopensesame.widgets.widget_factory.Label object at 0x0000023CDBD70488>","<libopensesame.widgets.widget_factory.Label object at 0x0000023CDBD70508>","<libopensesame.widgets.widget_factory.Label object at 0x0000023CD7C851C8>","<libopensesame.widgets.widget_factory.Label object at 0x0000023CD7C8C108>","<libopensesame.widgets.widget_factory.Label object at 0x0000023CD7C81A88>","<libopensesame.widgets.widget_factory.Label object at 0x0000023CD7C815C8>","<libopensesame.widgets.widget_factory.Label object at 0x0000023CD7C81908>","<libopensesame.widgets.widget_factory.Label object at 0x0000023CDBD70A48>","<libopensesame.widgets.widget_factory.Label object at 0x0000023CDBD70C48>","<libopensesame.widgets.widget_factory.Label object at 0x0000023CDBD700C8>","1","[X1]","Feather.png","Mouse.png","Beetle.png","#f1f1f1","0","1","2","psycho","psycho","psycho","0","uniform","0","0","0","NA","NA","NA","NA","NA","NA","0","0","0","0","NA","0","0","0","0","0","0","0","NA","0","NA","NA","NA","NA","NA","0","NA","Mon Jan 18 17:21:50 2021","The main experiment item","yes","","Experiment1.osexp","C:\Users\Sanne\Dropbox\MasterProject\Experiments","no","mono","no","18","no","#000000","no","Next","no","768","NA","NA","psycho","NA","0","0","0","[[0, 0], [0, 1], [0, 2], [0, 3], [0, 4], [0, 5], [0, 6], [0, 7], [0, 8], [0, 9], [0, 10], [0, 11], [0, 12], [0, 13], [2, 0], [2, 1], [2, 2], [2, 3], [2, 4], [2, 5], [2, 6], [2, 7], [2, 8], [2, 9], [2, 10], [2, 11], [2, 12], [2, 13]]","C:/Users/Sanne/Dropbox/MasterProject/Experiments/subj/subject-1.csv","psycho","Lentiform Loewenfeld","3.3.6","[2, 5]","2","5","[0, 3]","0","3","0","NA","NA","NA","NA","NA","NA","NA","NA","2","4","4","psycho","1024","2","48000","-16","experiment","1","odd","[[0, 0], [0, 1], [0, 2], [0, 3], [0, 4], [0, 5], [0, 6], [0, 7], [0, 8], [0, 9], [0, 10], [0, 11], [0, 12], [0, 13]]","8863.078600003064","8863.011700002971","8863.062800002808","NA","NA","NA","NA","NA","NA","1974.7930000012275","NA","2655.891700000211","1978.7024000033853","NA","NA","NA","3607.508000000962","NA","NA","1974.5411000003514","3607.4532000020554","NA","8863.091200000781","NA","NA","NA","NA","NA","3606.8836000013107","NA","Experiment1","yes","1024"
"[A1]","Log.png","Acorn.png","Flower.png","[B1]","BlackBerries.png","Footprints.png","Puddle.png","   ResponsesA  ResponsesB  ResponsesX
0           2           3           2","NoDiamond.png","2","3","2","   ResponsesA  ResponsesB  ResponsesX
0           3           4           2
1           2           3           2","Empty DataFrame
Columns: [ResponsesA, ResponsesB, ResponsesX]
Index: []","Empty DataFrame
Columns: [ResponsesA, ResponsesB, ResponsesX]
Index: []","[B1]","[X1]","<libopensesame.widgets.widget_factory.Label object at 0x0000023CE3A3FC88>","<libopensesame.widgets.widget_factory.Label object at 0x0000023CE3A3FF08>","<libopensesame.widgets.widget_factory.Label object at 0x0000023CE3A3FC08>","<libopensesame.widgets.widget_factory.Label object at 0x0000023CE3A3FA08>","<libopensesame.widgets.widget_factory.Label object at 0x0000023CE3A3FDC8>","<libopensesame.widgets.widget_factory.Label object at 0x0000023CE3A3F748>","<libopensesame.widgets.widget_factory.Label object at 0x0000023CE3A3FF88>","<libopensesame.widgets.widget_factory.Label object at 0x0000023CE3A3F648>","<libopensesame.widgets.widget_factory.Label object at 0x0000023CE3A3F908>","<libopensesame.widgets.widget_factory.Label object at 0x0000023CE3A3F688>","<libopensesame.widgets.widget_factory.Label object at 0x0000023CE3A3F508>","<libopensesame.widgets.widget_factory.Label object at 0x0000023CE3A3F708>","<libopensesame.widgets.widget_factory.Label object at 0x0000023CE3A3F248>","<libopensesame.widgets.widget_factory.Label object at 0x0000023CE3A3F048>","<libopensesame.widgets.widget_factory.Label object at 0x0000023CE3A3FC48>","<libopensesame.widgets.widget_factory.Label object at 0x0000023CE3A3F988>","2","[X1]","Feather.png","Mouse.png","Beetle.png","#f1f1f1","0","1","2","psycho","psycho","psycho","0","uniform","1","1","1","NA","NA","NA","NA","NA","NA","0","0","0","0","NA","0","0","0","0","0","0","0","NA","1","NA","NA","NA","NA","NA","0","NA","Mon Jan 18 17:21:50 2021","The main experiment item","yes","","Experiment1.osexp","C:\Users\Sanne\Dropbox\MasterProject\Experiments","no","mono","no","18","no","#000000","no","Next","no","768","3","4","psycho","2","1","1","0","[[0, 0], [0, 1], [0, 2], [0, 3], [0, 4], [0, 5], [0, 6], [0, 7], [0, 8], [0, 9], [0, 10], [0, 11], [0, 12], [0, 13], [2, 0], [2, 1], [2, 2], [2, 3], [2, 4], [2, 5], [2, 6], [2, 7], [2, 8], [2, 9], [2, 10], [2, 11], [2, 12], [2, 13]]","C:/Users/Sanne/Dropbox/MasterProject/Experiments/subj/subject-1.csv","psycho","Lentiform Loewenfeld","3.3.6","[0, 1]","0","1","[2, 10]","2","10","0","NA","NA","NA","NA","NA","NA","NA","NA","2","4","4","psycho","1024","2","48000","-16","experiment","1","odd","[[2, 0], [2, 1], [2, 2], [2, 3], [2, 4], [2, 5], [2, 6], [2, 7], [2, 8], [2, 9], [2, 10], [2, 11], [2, 12], [2, 13]]","14684.545000000071","14684.47500000184","14684.528100002353","NA","NA","NA","NA","NA","NA","1974.7930000012275","NA","2655.891700000211","1978.7024000033853","NA","NA","NA","3607.508000000962","NA","NA","1974.5411000003514","3607.4532000020554","NA","14684.558700002526","NA","NA","NA","NA","NA","3606.8836000013107","NA","Experiment1","yes","1024"
"[A1]","Log.png","Acorn.png","Flower.png","[B1]","BlackBerries.png","Footprints.png","Puddle.png","   ResponsesA  ResponsesB  ResponsesX
0           3           4           3","Diamond.png","3","4","3","   ResponsesA  ResponsesB  ResponsesX
0           3           4           2
1           2           3           2
2           3           4           3","Empty DataFrame
Columns: [ResponsesA, ResponsesB, ResponsesX]
Index: []","Empty DataFrame
Columns: [ResponsesA, ResponsesB, ResponsesX]
Index: []","[B1]","[X1]","<libopensesame.widgets.widget_factory.Label object at 0x0000023CDBAEEC48>","<libopensesame.widgets.widget_factory.Label object at 0x0000023CD8760F88>","<libopensesame.widgets.widget_factory.Label object at 0x0000023CD8760C88>","<libopensesame.widgets.widget_factory.Label object at 0x0000023CD8760EC8>","<libopensesame.widgets.widget_factory.Label object at 0x0000023CE2D2D148>","<libopensesame.widgets.widget_factory.Label object at 0x0000023CE2D2D4C8>","<libopensesame.widgets.widget_factory.Label object at 0x0000023CE2D2DB08>","<libopensesame.widgets.widget_factory.Label object at 0x0000023CE2D2D948>","<libopensesame.widgets.widget_factory.Label object at 0x0000023CDBAEEFC8>","<libopensesame.widgets.widget_factory.Label object at 0x0000023CD87608C8>","<libopensesame.widgets.widget_factory.Label object at 0x0000023CD8760D48>","<libopensesame.widgets.widget_factory.Label object at 0x0000023CD8760D08>","<libopensesame.widgets.widget_factory.Label object at 0x0000023CD8760248>","<libopensesame.widgets.widget_factory.Label object at 0x0000023CD87602C8>","<libopensesame.widgets.widget_factory.Label object at 0x0000023CD8760AC8>","<libopensesame.widgets.widget_factory.Label object at 0x0000023CD8760C48>","3","[X1]","Feather.png","Mouse.png","Beetle.png","#f1f1f1","0","1","2","psycho","psycho","psycho","0","uniform","2","2","2","NA","NA","NA","NA","NA","NA","0","0","0","0","NA","0","0","0","0","0","0","0","NA","2","NA","NA","NA","NA","NA","0","NA","Mon Jan 18 17:21:50 2021","The main experiment item","yes","","Experiment1.osexp","C:\Users\Sanne\Dropbox\MasterProject\Experiments","no","mono","no","18","no","#000000","no","Next","no","768","2","3","psycho","2","2","2","0","[[0, 0], [0, 1], [0, 2], [0, 3], [0, 4], [0, 5], [0, 6], [0, 7], [0, 8], [0, 9], [0, 10], [0, 11], [0, 12], [0, 13], [2, 0], [2, 1], [2, 2], [2, 3], [2, 4], [2, 5], [2, 6], [2, 7], [2, 8], [2, 9], [2, 10], [2, 11], [2, 12], [2, 13]]","C:/Users/Sanne/Dropbox/MasterProject/Experiments/subj/subject-1.csv","psycho","Lentiform Loewenfeld","3.3.6","[0, 0]","0","0","[2, 4]","2","4","0","NA","NA","NA","NA","NA","NA","NA","NA","2","4","4","psycho","1024","2","48000","-16","experiment","1","odd","[[2, 0], [2, 1], [2, 2], [2, 3], [2, 4], [2, 5], [2, 6], [2, 7], [2, 8], [2, 9], [2, 10], [2, 11], [2, 12], [2, 13]]","19371.739200003503","19371.61500000002","19371.722600000794","NA","NA","NA","NA","NA","NA","1974.7930000012275","NA","2655.891700000211","1978.7024000033853","NA","NA","NA","3607.508000000962","NA","NA","1974.5411000003514","3607.4532000020554","NA","19371.75220000063","NA","NA","NA","NA","NA","3606.8836000013107","NA","Experiment1","yes","1024"
"[A1]","Log.png","Acorn.png","Flower.png","[B1]","BlackBerries.png","Footprints.png","Puddle.png","   ResponsesA  ResponsesB  ResponsesX
0           3           4           3","NoDiamond.png","3","4","3","   ResponsesA  ResponsesB  ResponsesX
0           3           4           2
1           2           3           2
2           3           4           3
3           3           4           3","Empty DataFrame
Columns: [ResponsesA, ResponsesB, ResponsesX]
Index: []","Empty DataFrame
Columns: [ResponsesA, ResponsesB, ResponsesX]
Index: []","[A1]","[X1]","<libopensesame.widgets.widget_factory.Label object at 0x0000023CD876F488>","<libopensesame.widgets.widget_factory.Label object at 0x0000023CD8904488>","<libopensesame.widgets.widget_factory.Label object at 0x0000023CD8904A88>","<libopensesame.widgets.widget_factory.Label object at 0x0000023CD8904288>","<libopensesame.widgets.widget_factory.Label object at 0x0000023CDBA9EF88>","<libopensesame.widgets.widget_factory.Label object at 0x0000023CE2D2D9C8>","<libopensesame.widgets.widget_factory.Label object at 0x0000023CE2D2D808>","<libopensesame.widgets.widget_factory.Label object at 0x0000023CE2D2D108>","<libopensesame.widgets.widget_factory.Label object at 0x0000023CD876F6C8>","<libopensesame.widgets.widget_factory.Label object at 0x0000023CD876F608>","<libopensesame.widgets.widget_factory.Label object at 0x0000023CDBD5B7C8>","<libopensesame.widgets.widget_factory.Label object at 0x0000023CD8981088>","<libopensesame.widgets.widget_factory.Label object at 0x0000023CD8981848>","<libopensesame.widgets.widget_factory.Label object at 0x0000023CD8981448>","<libopensesame.widgets.widget_factory.Label object at 0x0000023CD8981F88>","<libopensesame.widgets.widget_factory.Label object at 0x0000023CDBD6B648>","4","[X1]","Feather.png","Mouse.png","Beetle.png","#f1f1f1","0","1","2","psycho","psycho","psycho","0","uniform","3","3","3","NA","NA","NA","NA","NA","NA","0","0","0","0","NA","0","0","0","0","0","0","0","NA","3","NA","NA","NA","NA","NA","0","NA","Mon Jan 18 17:21:50 2021","The main experiment item","yes","","Experiment1.osexp","C:\Users\Sanne\Dropbox\MasterProject\Experiments","no","mono","no","18","no","#000000","no","Next","no","768","3","4","psycho","3","3","3","0","[[0, 0], [0, 1], [0, 2], [0, 3], [0, 4], [0, 5], [0, 6], [0, 7], [0, 8], [0, 9], [0, 10], [0, 11], [0, 12], [0, 13], [2, 0], [2, 1], [2, 2], [2, 3], [2, 4], [2, 5], [2, 6], [2, 7], [2, 8], [2, 9], [2, 10], [2, 11], [2, 12], [2, 13]]","C:/Users/Sanne/Dropbox/MasterProject/Experiments/subj/subject-1.csv","psycho","Lentiform Loewenfeld","3.3.6","[2, 7]","2","7","[0, 0]","0","0","0","NA","NA","NA","NA","NA","NA","NA","NA","2","4","3","psycho","1024","2","48000","-16","experiment","1","odd","[[0, 0], [0, 1], [0, 2], [0, 3], [0, 4], [0, 5], [0, 6], [0, 7], [0, 8], [0, 9], [0, 10], [0, 11], [0, 12], [0, 13]]","24492.226700000174","24492.16180000076","24492.210700002033","NA","NA","NA","NA","NA","NA","1974.7930000012275","NA","2655.891700000211","1978.7024000033853","NA","NA","NA","3607.508000000962","NA","NA","1974.5411000003514","3607.4532000020554","NA","24492.23990000246","NA","NA","NA","NA","NA","3606.8836000013107","NA","Experiment1","yes","1024"
"[A1]","Log.png","Acorn.png","Flower.png","[B1]","BlackBerries.png","Footprints.png","Puddle.png","   ResponsesA  ResponsesB  ResponsesX
0           3           4           3","NoDiamond.png","3","4","3","   ResponsesA  ResponsesB  ResponsesX
0           3           4           2
1           2           3           2
2           3           4           3
3           3           4           3
4           3           4           3","Empty DataFrame
Columns: [ResponsesA, ResponsesB, ResponsesX]
Index: []","Empty DataFrame
Columns: [ResponsesA, ResponsesB, ResponsesX]
Index: []","[A1]","[X1]","<libopensesame.widgets.widget_factory.Label object at 0x0000023CE3F4CE08>","<libopensesame.widgets.widget_factory.Label object at 0x0000023CDBD61E08>","<libopensesame.widgets.widget_factory.Label object at 0x0000023CDBD61B88>","<libopensesame.widgets.widget_factory.Label object at 0x0000023CDBD61D88>","<libopensesame.widgets.widget_factory.Label object at 0x0000023CDBD61688>","<libopensesame.widgets.widget_factory.Label object at 0x0000023CDBD61DC8>","<libopensesame.widgets.widget_factory.Label object at 0x0000023CDBD61888>","<libopensesame.widgets.widget_factory.Label object at 0x0000023CDBD61A88>","<libopensesame.widgets.widget_factory.Label object at 0x0000023CE3F4C1C8>","<libopensesame.widgets.widget_factory.Label object at 0x0000023CE3F4C408>","<libopensesame.widgets.widget_factory.Label object at 0x0000023CE3F4CDC8>","<libopensesame.widgets.widget_factory.Label object at 0x0000023CDBD70408>","<libopensesame.widgets.widget_factory.Label object at 0x0000023CDBD70748>","<libopensesame.widgets.widget_factory.Label object at 0x0000023CDBD706C8>","<libopensesame.widgets.widget_factory.Label object at 0x0000023CDBD70D88>","<libopensesame.widgets.widget_factory.Label object at 0x0000023CDBD61C88>","5","[X1]","Feather.png","Mouse.png","Beetle.png","#f1f1f1","0","1","2","psycho","psycho","psycho","0","uniform","4","4","4","NA","NA","NA","NA","NA","NA","0","0","0","0","NA","0","0","0","0","0","0","0","NA","4","NA","NA","NA","NA","NA","0","NA","Mon Jan 18 17:21:50 2021","The main experiment item","yes","","Experiment1.osexp","C:\Users\Sanne\Dropbox\MasterProject\Experiments","no","mono","no","18","no","#000000","no","Next","no","768","3","4","psycho","3","4","4","0","[[0, 0], [0, 1], [0, 2], [0, 3], [0, 4], [0, 5], [0, 6], [0, 7], [0, 8], [0, 9], [0, 10], [0, 11], [0, 12], [0, 13], [2, 0], [2, 1], [2, 2], [2, 3], [2, 4], [2, 5], [2, 6], [2, 7], [2, 8], [2, 9], [2, 10], [2, 11], [2, 12], [2, 13]]","C:/Users/Sanne/Dropbox/MasterProject/Experiments/subj/subject-1.csv","psycho","Lentiform Loewenfeld","3.3.6","[2, 6]","2","6","[0, 6]","0","6","0","NA","NA","NA","NA","NA","NA","NA","NA","2","4","4","psycho","1024","2","48000","-16","experiment","1","odd","[[0, 0], [0, 1], [0, 2], [0, 3], [0, 4], [0, 5], [0, 6], [0, 7], [0, 8], [0, 9], [0, 10], [0, 11], [0, 12], [0, 13]]","28512.42270000148","28512.344000002486","28512.405900000886","NA","NA","NA","NA","NA","NA","1974.7930000012275","NA","2655.891700000211","1978.7024000033853","NA","NA","NA","3607.508000000962","NA","NA","1974.5411000003514","3607.4532000020554","NA","28512.435300002835","NA","NA","NA","NA","NA","3606.8836000013107","NA","Experiment1","yes","1024"
"[A1]","Log.png","Acorn.png","Flower.png","[B1]","BlackBerries.png","Footprints.png","Puddle.png","   ResponsesA  ResponsesB  ResponsesX
0           3           4           2","Diamond.png","3","4","2","   ResponsesA  ResponsesB  ResponsesX
0           3           4           2
1           2           3           2
2           3           4           3
3           3           4           3
4           3           4           3
5           3           4           2","Empty DataFrame
Columns: [ResponsesA, ResponsesB, ResponsesX]
Index: []","Empty DataFrame
Columns: [ResponsesA, ResponsesB, ResponsesX]
Index: []","[B1]","[X1]","<libopensesame.widgets.widget_factory.Label object at 0x0000023CE392E488>","<libopensesame.widgets.widget_factory.Label object at 0x0000023CD832D0C8>","<libopensesame.widgets.widget_factory.Label object at 0x0000023CD832D888>","<libopensesame.widgets.widget_factory.Label object at 0x0000023CD832DC48>","<libopensesame.widgets.widget_factory.Label object at 0x0000023CD832D9C8>","<libopensesame.widgets.widget_factory.Label object at 0x0000023CD832D108>","<libopensesame.widgets.widget_factory.Label object at 0x0000023CD832D788>","<libopensesame.widgets.widget_factory.Label object at 0x0000023CD832D748>","<libopensesame.widgets.widget_factory.Label object at 0x0000023CE3F4CE08>","<libopensesame.widgets.widget_factory.Label object at 0x0000023CE3F4CA08>","<libopensesame.widgets.widget_factory.Label object at 0x0000023CE3F4C548>","<libopensesame.widgets.widget_factory.Label object at 0x0000023CE3F4C3C8>","<libopensesame.widgets.widget_factory.Label object at 0x0000023CDBD700C8>","<libopensesame.widgets.widget_factory.Label object at 0x0000023CD8976788>","<libopensesame.widgets.widget_factory.Label object at 0x0000023CD8976248>","<libopensesame.widgets.widget_factory.Label object at 0x0000023CD89762C8>","6","[X1]","Feather.png","Mouse.png","Beetle.png","#f1f1f1","0","1","2","psycho","psycho","psycho","0","uniform","5","5","5","NA","NA","NA","NA","NA","NA","0","0","0","0","NA","0","0","0","0","0","0","0","NA","5","NA","NA","NA","NA","NA","0","NA","Mon Jan 18 17:21:50 2021","The main experiment item","yes","","Experiment1.osexp","C:\Users\Sanne\Dropbox\MasterProject\Experiments","no","mono","no","18","no","#000000","no","Next","no","768","3","4","psycho","3","5","5","0","[[0, 0], [0, 1], [0, 2], [0, 3], [0, 4], [0, 5], [0, 6], [0, 7], [0, 8], [0, 9], [0, 10], [0, 11], [0, 12], [0, 13], [2, 0], [2, 1], [2, 2], [2, 3], [2, 4], [2, 5], [2, 6], [2, 7], [2, 8], [2, 9], [2, 10], [2, 11], [2, 12], [2, 13]]","C:/Users/Sanne/Dropbox/MasterProject/Experiments/subj/subject-1.csv","psycho","Lentiform Loewenfeld","3.3.6","[0, 2]","0","2","[2, 10]","2","10","0","NA","NA","NA","NA","NA","NA","NA","NA","2","4","4","psycho","1024","2","48000","-16","experiment","1","odd","[[2, 0], [2, 1], [2, 2], [2, 3], [2, 4], [2, 5], [2, 6], [2, 7], [2, 8], [2, 9], [2, 10], [2, 11], [2, 12], [2, 13]]","32682.5800000006","32682.42640000244","32682.562900001358","NA","NA","NA","NA","NA","NA","1974.7930000012275","NA","2655.891700000211","1978.7024000033853","NA","NA","NA","3607.508000000962","NA","NA","1974.5411000003514","3607.4532000020554","NA","32682.59300000136","NA","NA","NA","NA","NA","3606.8836000013107","NA","Experiment1","yes","1024"
"[A1]","Log.png","Acorn.png","Flower.png","[B1]","BlackBerries.png","Footprints.png","Puddle.png","   ResponsesA  ResponsesB  ResponsesX
0           4           3           2","Diamond.png","4","3","2","   ResponsesA  ResponsesB  ResponsesX
0           3           4           2
1           2           3           2
2           3           4           3
3           3           4           3
4           3           4           3
5           3           4           2
6           4           3           2","Empty DataFrame
Columns: [ResponsesA, ResponsesB, ResponsesX]
Index: []","Empty DataFrame
Columns: [ResponsesA, ResponsesB, ResponsesX]
Index: []","[A1]","[X1]","<libopensesame.widgets.widget_factory.Label object at 0x0000023CD84C1648>","<libopensesame.widgets.widget_factory.Label object at 0x0000023CD7C81188>","<libopensesame.widgets.widget_factory.Label object at 0x0000023CD7C81F88>","<libopensesame.widgets.widget_factory.Label object at 0x0000023CDBD0FFC8>","<libopensesame.widgets.widget_factory.Label object at 0x0000023CE31443C8>","<libopensesame.widgets.widget_factory.Label object at 0x0000023CE31449C8>","<libopensesame.widgets.widget_factory.Label object at 0x0000023CE3144708>","<libopensesame.widgets.widget_factory.Label object at 0x0000023CE3144B88>","<libopensesame.widgets.widget_factory.Label object at 0x0000023CD72C0B88>","<libopensesame.widgets.widget_factory.Label object at 0x0000023CD72C0E08>","<libopensesame.widgets.widget_factory.Label object at 0x0000023CD72C0CC8>","<libopensesame.widgets.widget_factory.Label object at 0x0000023CD7C81908>","<libopensesame.widgets.widget_factory.Label object at 0x0000023CD7C81588>","<libopensesame.widgets.widget_factory.Label object at 0x0000023CD7C81788>","<libopensesame.widgets.widget_factory.Label object at 0x0000023CD7C81708>","<libopensesame.widgets.widget_factory.Label object at 0x0000023CD7C81308>","7","[X1]","Feather.png","Mouse.png","Beetle.png","#f1f1f1","0","1","2","psycho","psycho","psycho","0","uniform","6","6","6","NA","NA","NA","NA","NA","NA","0","0","0","0","NA","0","0","0","0","0","0","0","NA","6","NA","NA","NA","NA","NA","0","NA","Mon Jan 18 17:21:50 2021","The main experiment item","yes","","Experiment1.osexp","C:\Users\Sanne\Dropbox\MasterProject\Experiments","no","mono","no","18","no","#000000","no","Next","no","768","3","4","psycho","2","6","6","0","[[0, 0], [0, 1], [0, 2], [0, 3], [0, 4], [0, 5], [0, 6], [0, 7], [0, 8], [0, 9], [0, 10], [0, 11], [0, 12], [0, 13], [2, 0], [2, 1], [2, 2], [2, 3], [2, 4], [2, 5], [2, 6], [2, 7], [2, 8], [2, 9], [2, 10], [2, 11], [2, 12], [2, 13]]","C:/Users/Sanne/Dropbox/MasterProject/Experiments/subj/subject-1.csv","psycho","Lentiform Loewenfeld","3.3.6","[2, 7]","2","7","[0, 4]","0","4","0","NA","NA","NA","NA","NA","NA","NA","NA","2","4","4","psycho","1024","2","48000","-16","experiment","1","odd","[[0, 0], [0, 1], [0, 2], [0, 3], [0, 4], [0, 5], [0, 6], [0, 7], [0, 8], [0, 9], [0, 10], [0, 11], [0, 12], [0, 13]]","36669.14810000162","36669.08070000136","36669.12980000052","NA","NA","NA","NA","NA","NA","1974.7930000012275","NA","2655.891700000211","1978.7024000033853","NA","NA","NA","3607.508000000962","NA","NA","1974.5411000003514","3607.4532000020554","NA","36669.16090000086","NA","NA","NA","NA","NA","3606.8836000013107","NA","Experiment1","yes","1024"
"[A1]","Log.png","Acorn.png","Flower.png","[B1]","BlackBerries.png","Footprints.png","Puddle.png","   ResponsesA  ResponsesB  ResponsesX
0           4           3           2","NoDiamond.png","4","3","2","   ResponsesA  ResponsesB  ResponsesX
0           3           4           2
1           2           3           2
2           3           4           3
3           3           4           3
4           3           4           3
5           3           4           2
6           4           3           2
7           4           3           2","Empty DataFrame
Columns: [ResponsesA, ResponsesB, ResponsesX]
Index: []","Empty DataFrame
Columns: [ResponsesA, ResponsesB, ResponsesX]
Index: []","[B1]","[X1]","<libopensesame.widgets.widget_factory.Label object at 0x0000023CDBB84D48>","<libopensesame.widgets.widget_factory.Label object at 0x0000023CD898CEC8>","<libopensesame.widgets.widget_factory.Label object at 0x0000023CD7C89C48>","<libopensesame.widgets.widget_factory.Label object at 0x0000023CD7C89B48>","<libopensesame.widgets.widget_factory.Label object at 0x0000023CD7C89BC8>","<libopensesame.widgets.widget_factory.Label object at 0x0000023CD7C89388>","<libopensesame.widgets.widget_factory.Label object at 0x0000023CD832D4C8>","<libopensesame.widgets.widget_factory.Label object at 0x0000023CD832DDC8>","<libopensesame.widgets.widget_factory.Label object at 0x0000023CDBB84108>","<libopensesame.widgets.widget_factory.Label object at 0x0000023CDBCF4C48>","<libopensesame.widgets.widget_factory.Label object at 0x0000023CDBCF47C8>","<libopensesame.widgets.widget_factory.Label object at 0x0000023CDBCF46C8>","<libopensesame.widgets.widget_factory.Label object at 0x0000023CE2D34688>","<libopensesame.widgets.widget_factory.Label object at 0x0000023CD898CB48>","<libopensesame.widgets.widget_factory.Label object at 0x0000023CD898C9C8>","<libopensesame.widgets.widget_factory.Label object at 0x0000023CD898C788>","8","[X1]","Feather.png","Mouse.png","Beetle.png","#f1f1f1","0","1","2","psycho","psycho","psycho","0","uniform","7","7","7","NA","NA","NA","NA","NA","NA","0","0","0","0","NA","0","0","0","0","0","0","0","NA","7","NA","NA","NA","NA","NA","0","NA","Mon Jan 18 17:21:50 2021","The main experiment item","yes","","Experiment1.osexp","C:\Users\Sanne\Dropbox\MasterProject\Experiments","no","mono","no","18","no","#000000","no","Next","no","768","4","3","psycho","2","7","7","0","[[0, 0], [0, 1], [0, 2], [0, 3], [0, 4], [0, 5], [0, 6], [0, 7], [0, 8], [0, 9], [0, 10], [0, 11], [0, 12], [0, 13], [2, 0], [2, 1], [2, 2], [2, 3], [2, 4], [2, 5], [2, 6], [2, 7], [2, 8], [2, 9], [2, 10], [2, 11], [2, 12], [2, 13]]","C:/Users/Sanne/Dropbox/MasterProject/Experiments/subj/subject-1.csv","psycho","Lentiform Loewenfeld","3.3.6","[2, 7]","2","7","[0, 1]","0","1","0","NA","NA","NA","NA","NA","NA","NA","NA","2","4","4","psycho","1024","2","48000","-16","experiment","1","odd","[[0, 0], [0, 1], [0, 2], [0, 3], [0, 4], [0, 5], [0, 6], [0, 7], [0, 8], [0, 9], [0, 10], [0, 11], [0, 12], [0, 13]]","41493.92800000351","41493.84800000189","41493.91070000274","NA","NA","NA","NA","NA","NA","1974.7930000012275","NA","2655.891700000211","1978.7024000033853","NA","NA","NA","3607.508000000962","NA","NA","1974.5411000003514","3607.4532000020554","NA","41493.94270000266","NA","NA","NA","NA","NA","3606.8836000013107","NA","Experiment1","yes","1024"
"[A1]","Log.png","Acorn.png","Flower.png","[B1]","BlackBerries.png","Footprints.png","Puddle.png","   ResponsesA  ResponsesB  ResponsesX
0           3           4           2","Diamond.png","3","4","2","   ResponsesA  ResponsesB  ResponsesX
0           3           4           2
1           2           3           2
2           3           4           3
3           3           4           3
4           3           4           3
5           3           4           2
6           4           3           2
7           4           3           2
8           3           4           2","Empty DataFrame
Columns: [ResponsesA, ResponsesB, ResponsesX]
Index: []","Empty DataFrame
Columns: [ResponsesA, ResponsesB, ResponsesX]
Index: []","[B1]","[X1]","<libopensesame.widgets.widget_factory.Label object at 0x0000023CE2D34948>","<libopensesame.widgets.widget_factory.Label object at 0x0000023CDBD70988>","<libopensesame.widgets.widget_factory.Label object at 0x0000023CDBD70A48>","<libopensesame.widgets.widget_factory.Label object at 0x0000023CDBD70508>","<libopensesame.widgets.widget_factory.Label object at 0x0000023CDBD70608>","<libopensesame.widgets.widget_factory.Label object at 0x0000023CDBD70B48>","<libopensesame.widgets.widget_factory.Label object at 0x0000023CDBD707C8>","<libopensesame.widgets.widget_factory.Label object at 0x0000023CDBD708C8>","<libopensesame.widgets.widget_factory.Label object at 0x0000023CDBAEEC08>","<libopensesame.widgets.widget_factory.Label object at 0x0000023CDBD70A88>","<libopensesame.widgets.widget_factory.Label object at 0x0000023CDBD70FC8>","<libopensesame.widgets.widget_factory.Label object at 0x0000023CDBD70D08>","<libopensesame.widgets.widget_factory.Label object at 0x0000023CDBD70408>","<libopensesame.widgets.widget_factory.Label object at 0x0000023CDBD70248>","<libopensesame.widgets.widget_factory.Label object at 0x0000023CDBD70C88>","<libopensesame.widgets.widget_factory.Label object at 0x0000023CDBD70DC8>","9","[X1]","Feather.png","Mouse.png","Beetle.png","#f1f1f1","0","1","2","psycho","psycho","psycho","0","uniform","8","8","8","NA","NA","NA","NA","NA","NA","0","0","0","0","NA","0","0","0","0","0","0","0","NA","8","NA","NA","NA","NA","NA","0","NA","Mon Jan 18 17:21:50 2021","The main experiment item","yes","","Experiment1.osexp","C:\Users\Sanne\Dropbox\MasterProject\Experiments","no","mono","no","18","no","#000000","no","Next","no","768","4","3","psycho","2","8","8","0","[[0, 0], [0, 1], [0, 2], [0, 3], [0, 4], [0, 5], [0, 6], [0, 7], [0, 8], [0, 9], [0, 10], [0, 11], [0, 12], [0, 13], [2, 0], [2, 1], [2, 2], [2, 3], [2, 4], [2, 5], [2, 6], [2, 7], [2, 8], [2, 9], [2, 10], [2, 11], [2, 12], [2, 13]]","C:/Users/Sanne/Dropbox/MasterProject/Experiments/subj/subject-1.csv","psycho","Lentiform Loewenfeld","3.3.6","[0, 7]","0","7","[2, 4]","2","4","0","NA","NA","NA","NA","NA","NA","NA","NA","2","4","4","psycho","1024","2","48000","-16","experiment","1","odd","[[2, 0], [2, 1], [2, 2], [2, 3], [2, 4], [2, 5], [2, 6], [2, 7], [2, 8], [2, 9], [2, 10], [2, 11], [2, 12], [2, 13]]","45876.647400000365","45876.58300000112","45876.631500002986","NA","NA","NA","NA","NA","NA","1974.7930000012275","NA","2655.891700000211","1978.7024000033853","NA","NA","NA","3607.508000000962","NA","NA","1974.5411000003514","3607.4532000020554","NA","45876.66060000265","NA","NA","NA","NA","NA","3606.8836000013107","NA","Experiment1","yes","1024"
"[A1]","Log.png","Acorn.png","Flower.png","[B1]","BlackBerries.png","Footprints.png","Puddle.png","   ResponsesA  ResponsesB  ResponsesX
0           4           2           3","NoDiamond.png","4","2","3","   ResponsesA  ResponsesB  ResponsesX
0           3           4           2
1           2           3           2
2           3           4           3
3           3           4           3
4           3           4           3
5           3           4           2
6           4           3           2
7           4           3           2
8           3           4           2
9           4           2           3","Empty DataFrame
Columns: [ResponsesA, ResponsesB, ResponsesX]
Index: []","Empty DataFrame
Columns: [ResponsesA, ResponsesB, ResponsesX]
Index: []","[A1]","[X1]","<libopensesame.widgets.widget_factory.Label object at 0x0000023CE4141208>","<libopensesame.widgets.widget_factory.Label object at 0x0000023CDBD6B5C8>","<libopensesame.widgets.widget_factory.Label object at 0x0000023CDBD6B608>","<libopensesame.widgets.widget_factory.Label object at 0x0000023CDBD6B988>","<libopensesame.widgets.widget_factory.Label object at 0x0000023CDBD6B748>","<libopensesame.widgets.widget_factory.Label object at 0x0000023CDBD6BB48>","<libopensesame.widgets.widget_factory.Label object at 0x0000023CDBD6B788>","<libopensesame.widgets.widget_factory.Label object at 0x0000023CDBD6B1C8>","<libopensesame.widgets.widget_factory.Label object at 0x0000023CE4141B08>","<libopensesame.widgets.widget_factory.Label object at 0x0000023CE4141708>","<libopensesame.widgets.widget_factory.Label object at 0x0000023CE4141C48>","<libopensesame.widgets.widget_factory.Label object at 0x0000023CD8760AC8>","<libopensesame.widgets.widget_factory.Label object at 0x0000023CD8760BC8>","<libopensesame.widgets.widget_factory.Label object at 0x0000023CE3144F08>","<libopensesame.widgets.widget_factory.Label object at 0x0000023CE3144448>","<libopensesame.widgets.widget_factory.Label object at 0x0000023CDBD6B448>","10","[X1]","Feather.png","Mouse.png","Beetle.png","#f1f1f1","0","1","2","psycho","psycho","psycho","0","uniform","9","9","9","NA","NA","NA","NA","NA","NA","0","0","0","0","NA","0","0","0","0","0","0","0","NA","9","NA","NA","NA","NA","NA","0","NA","Mon Jan 18 17:21:50 2021","The main experiment item","yes","","Experiment1.osexp","C:\Users\Sanne\Dropbox\MasterProject\Experiments","no","mono","no","18","no","#000000","no","Next","no","768","3","4","psycho","2","9","9","0","[[0, 0], [0, 1], [0, 2], [0, 3], [0, 4], [0, 5], [0, 6], [0, 7], [0, 8], [0, 9], [0, 10], [0, 11], [0, 12], [0, 13], [2, 0], [2, 1], [2, 2], [2, 3], [2, 4], [2, 5], [2, 6], [2, 7], [2, 8], [2, 9], [2, 10], [2, 11], [2, 12], [2, 13]]","C:/Users/Sanne/Dropbox/MasterProject/Experiments/subj/subject-1.csv","psycho","Lentiform Loewenfeld","3.3.6","[2, 13]","2","13","[0, 1]","0","1","0","NA","NA","NA","NA","NA","NA","NA","NA","2","4","4","psycho","1024","2","48000","-16","experiment","1","odd","[[0, 0], [0, 1], [0, 2], [0, 3], [0, 4], [0, 5], [0, 6], [0, 7], [0, 8], [0, 9], [0, 10], [0, 11], [0, 12], [0, 13]]","50029.947200000606","50029.882500002714","50029.93140000035","NA","NA","NA","NA","NA","NA","1974.7930000012275","NA","2655.891700000211","1978.7024000033853","NA","NA","NA","3607.508000000962","NA","NA","1974.5411000003514","3607.4532000020554","NA","50029.96060000078","NA","NA","NA","NA","NA","3606.8836000013107","NA","Experiment1","yes","1024"
"[A1]","Log.png","Acorn.png","Flower.png","[B1]","BlackBerries.png","Footprints.png","Puddle.png","   ResponsesA  ResponsesB  ResponsesX
0           3           3           3","NoDiamond.png","3","3","3","    ResponsesA  ResponsesB  ResponsesX
0            3           4           2
1            2           3           2
2            3           4           3
3            3           4           3
4            3           4           3
5            3           4           2
6            4           3           2
7            4           3           2
8            3           4           2
9            4           2           3
10           3           3           3","Empty DataFrame
Columns: [ResponsesA, ResponsesB, ResponsesX]
Index: []","Empty DataFrame
Columns: [ResponsesA, ResponsesB, ResponsesX]
Index: []","[B1]","[X1]","<libopensesame.widgets.widget_factory.Label object at 0x0000023CD7C85E48>","<libopensesame.widgets.widget_factory.Label object at 0x0000023CDA414248>","<libopensesame.widgets.widget_factory.Label object at 0x0000023CDBD59408>","<libopensesame.widgets.widget_factory.Label object at 0x0000023CDC702F88>","<libopensesame.widgets.widget_factory.Label object at 0x0000023CDC702708>","<libopensesame.widgets.widget_factory.Label object at 0x0000023CDC702BC8>","<libopensesame.widgets.widget_factory.Label object at 0x0000023CDC702188>","<libopensesame.widgets.widget_factory.Label object at 0x0000023CDC7021C8>","<libopensesame.widgets.widget_factory.Label object at 0x0000023CD7C85A48>","<libopensesame.widgets.widget_factory.Label object at 0x0000023CD7C85D48>","<libopensesame.widgets.widget_factory.Label object at 0x0000023CD89868C8>","<libopensesame.widgets.widget_factory.Label object at 0x0000023CDBD70B88>","<libopensesame.widgets.widget_factory.Label object at 0x0000023CDA414788>","<libopensesame.widgets.widget_factory.Label object at 0x0000023CDA414FC8>","<libopensesame.widgets.widget_factory.Label object at 0x0000023CDA414048>","<libopensesame.widgets.widget_factory.Label object at 0x0000023CDA414888>","11","[X1]","Feather.png","Mouse.png","Beetle.png","#f1f1f1","0","1","2","psycho","psycho","psycho","0","uniform","10","10","10","NA","NA","NA","NA","NA","NA","0","0","0","0","NA","0","0","0","0","0","0","0","NA","10","NA","NA","NA","NA","NA","0","NA","Mon Jan 18 17:21:50 2021","The main experiment item","yes","","Experiment1.osexp","C:\Users\Sanne\Dropbox\MasterProject\Experiments","no","mono","no","18","no","#000000","no","Next","no","768","4","2","psycho","3","10","10","0","[[0, 0], [0, 1], [0, 2], [0, 3], [0, 4], [0, 5], [0, 6], [0, 7], [0, 8], [0, 9], [0, 10], [0, 11], [0, 12], [0, 13], [2, 0], [2, 1], [2, 2], [2, 3], [2, 4], [2, 5], [2, 6], [2, 7], [2, 8], [2, 9], [2, 10], [2, 11], [2, 12], [2, 13]]","C:/Users/Sanne/Dropbox/MasterProject/Experiments/subj/subject-1.csv","psycho","Lentiform Loewenfeld","3.3.6","[2, 11]","2","11","[0, 2]","0","2","0","NA","NA","NA","NA","NA","NA","NA","NA","2","4","4","psycho","1024","2","48000","-16","experiment","1","odd","[[0, 0], [0, 1], [0, 2], [0, 3], [0, 4], [0, 5], [0, 6], [0, 7], [0, 8], [0, 9], [0, 10], [0, 11], [0, 12], [0, 13]]","54183.552500002406","54183.4880000024","54183.53720000232","NA","NA","NA","NA","NA","NA","1974.7930000012275","NA","2655.891700000211","1978.7024000033853","NA","NA","NA","3607.508000000962","NA","NA","1974.5411000003514","3607.4532000020554","NA","54183.56550000317","NA","NA","NA","NA","NA","3606.8836000013107","NA","Experiment1","yes","1024"
"[A1]","Log.png","Acorn.png","Flower.png","[B1]","BlackBerries.png","Footprints.png","Puddle.png","   ResponsesA  ResponsesB  ResponsesX
0           3           3           3","Diamond.png","3","3","3","    ResponsesA  ResponsesB  ResponsesX
0            3           4           2
1            2           3           2
2            3           4           3
3            3           4           3
4            3           4           3
5            3           4           2
6            4           3           2
7            4           3           2
8            3           4           2
9            4           2           3
10           3           3           3
11           3           3           3","Empty DataFrame
Columns: [ResponsesA, ResponsesB, ResponsesX]
Index: []","Empty DataFrame
Columns: [ResponsesA, ResponsesB, ResponsesX]
Index: []","[A1]","[X1]","<libopensesame.widgets.widget_factory.Label object at 0x0000023CD89043C8>","<libopensesame.widgets.widget_factory.Label object at 0x0000023CE2D34B88>","<libopensesame.widgets.widget_factory.Label object at 0x0000023CE2D34988>","<libopensesame.widgets.widget_factory.Label object at 0x0000023CE2D34C08>","<libopensesame.widgets.widget_factory.Label object at 0x0000023CE2D34948>","<libopensesame.widgets.widget_factory.Label object at 0x0000023CE2D34888>","<libopensesame.widgets.widget_factory.Label object at 0x0000023CE2D34D88>","<libopensesame.widgets.widget_factory.Label object at 0x0000023CE2D34D48>","<libopensesame.widgets.widget_factory.Label object at 0x0000023CD8904948>","<libopensesame.widgets.widget_factory.Label object at 0x0000023CD89040C8>","<libopensesame.widgets.widget_factory.Label object at 0x0000023CD72BE608>","<libopensesame.widgets.widget_factory.Label object at 0x0000023CD72BE788>","<libopensesame.widgets.widget_factory.Label object at 0x0000023CD72BE048>","<libopensesame.widgets.widget_factory.Label object at 0x0000023CDBD704C8>","<libopensesame.widgets.widget_factory.Label object at 0x0000023CD7C8CBC8>","<libopensesame.widgets.widget_factory.Label object at 0x0000023CE2D34BC8>","12","[X1]","Feather.png","Mouse.png","Beetle.png","#f1f1f1","0","1","2","psycho","psycho","psycho","0","uniform","11","11","11","NA","NA","NA","NA","NA","NA","0","0","0","0","NA","0","0","0","0","0","0","0","NA","11","NA","NA","NA","NA","NA","0","NA","Mon Jan 18 17:21:50 2021","The main experiment item","yes","","Experiment1.osexp","C:\Users\Sanne\Dropbox\MasterProject\Experiments","no","mono","no","18","no","#000000","no","Next","no","768","3","3","psycho","3","11","11","0","[[0, 0], [0, 1], [0, 2], [0, 3], [0, 4], [0, 5], [0, 6], [0, 7], [0, 8], [0, 9], [0, 10], [0, 11], [0, 12], [0, 13], [2, 0], [2, 1], [2, 2], [2, 3], [2, 4], [2, 5], [2, 6], [2, 7], [2, 8], [2, 9], [2, 10], [2, 11], [2, 12], [2, 13]]","C:/Users/Sanne/Dropbox/MasterProject/Experiments/subj/subject-1.csv","psycho","Lentiform Loewenfeld","3.3.6","[2, 8]","2","8","[0, 0]","0","0","0","NA","NA","NA","NA","NA","NA","NA","NA","2","4","3","psycho","1024","2","48000","-16","experiment","1","odd","[[0, 0], [0, 1], [0, 2], [0, 3], [0, 4], [0, 5], [0, 6], [0, 7], [0, 8], [0, 9], [0, 10], [0, 11], [0, 12], [0, 13]]","58353.44460000124","58353.37570000047","58353.42850000234","NA","NA","NA","NA","NA","NA","1974.7930000012275","NA","2655.891700000211","1978.7024000033853","NA","NA","NA","3607.508000000962","NA","NA","1974.5411000003514","3607.4532000020554","NA","58353.45850000158","NA","NA","NA","NA","NA","3606.8836000013107","NA","Experiment1","yes","1024"
"[A1]","Log.png","Acorn.png","Flower.png","[B1]","BlackBerries.png","Footprints.png","Puddle.png","   ResponsesA  ResponsesB  ResponsesX
0           3           3           3","NoDiamond.png","3","3","3","    ResponsesA  ResponsesB  ResponsesX
0            3           4           2
1            2           3           2
2            3           4           3
3            3           4           3
4            3           4           3
5            3           4           2
6            4           3           2
7            4           3           2
8            3           4           2
9            4           2           3
10           3           3           3
11           3           3           3
12           3           3           3","Empty DataFrame
Columns: [ResponsesA, ResponsesB, ResponsesX]
Index: []","Empty DataFrame
Columns: [ResponsesA, ResponsesB, ResponsesX]
Index: []","[A1]","[X1]","<libopensesame.widgets.widget_factory.Label object at 0x0000023CD898CB48>","<libopensesame.widgets.widget_factory.Label object at 0x0000023CD7C89A88>","<libopensesame.widgets.widget_factory.Label object at 0x0000023CDA4148C8>","<libopensesame.widgets.widget_factory.Label object at 0x0000023CD7C8C888>","<libopensesame.widgets.widget_factory.Label object at 0x0000023CDBAF74C8>","<libopensesame.widgets.widget_factory.Label object at 0x0000023CDBAF7248>","<libopensesame.widgets.widget_factory.Label object at 0x0000023CDBAF7E48>","<libopensesame.widgets.widget_factory.Label object at 0x0000023CD7C81A88>","<libopensesame.widgets.widget_factory.Label object at 0x0000023CD898CC88>","<libopensesame.widgets.widget_factory.Label object at 0x0000023CDBA887C8>","<libopensesame.widgets.widget_factory.Label object at 0x0000023CD72B54C8>","<libopensesame.widgets.widget_factory.Label object at 0x0000023CE31449C8>","<libopensesame.widgets.widget_factory.Label object at 0x0000023CE31441C8>","<libopensesame.widgets.widget_factory.Label object at 0x0000023CE3144108>","<libopensesame.widgets.widget_factory.Label object at 0x0000023CE3144608>","<libopensesame.widgets.widget_factory.Label object at 0x0000023CE31443C8>","13","[X1]","Feather.png","Mouse.png","Beetle.png","#f1f1f1","0","1","2","psycho","psycho","psycho","0","uniform","12","12","12","NA","NA","NA","NA","NA","NA","0","0","0","0","NA","0","0","0","0","0","0","0","NA","12","NA","NA","NA","NA","NA","0","NA","Mon Jan 18 17:21:50 2021","The main experiment item","yes","","Experiment1.osexp","C:\Users\Sanne\Dropbox\MasterProject\Experiments","no","mono","no","18","no","#000000","no","Next","no","768","3","3","psycho","3","12","12","0","[[0, 0], [0, 1], [0, 2], [0, 3], [0, 4], [0, 5], [0, 6], [0, 7], [0, 8], [0, 9], [0, 10], [0, 11], [0, 12], [0, 13], [2, 0], [2, 1], [2, 2], [2, 3], [2, 4], [2, 5], [2, 6], [2, 7], [2, 8], [2, 9], [2, 10], [2, 11], [2, 12], [2, 13]]","C:/Users/Sanne/Dropbox/MasterProject/Experiments/subj/subject-1.csv","psycho","Lentiform Loewenfeld","3.3.6","[2, 6]","2","6","[0, 12]","0","12","0","NA","NA","NA","NA","NA","NA","NA","NA","2","4","4","psycho","1024","2","48000","-16","experiment","1","odd","[[0, 0], [0, 1], [0, 2], [0, 3], [0, 4], [0, 5], [0, 6], [0, 7], [0, 8], [0, 9], [0, 10], [0, 11], [0, 12], [0, 13]]","62807.292600002256","62807.08770000274","62807.27470000056","NA","NA","NA","NA","NA","NA","1974.7930000012275","NA","2655.891700000211","1978.7024000033853","NA","NA","NA","3607.508000000962","NA","NA","1974.5411000003514","3607.4532000020554","NA","62807.30680000124","NA","NA","NA","NA","NA","3606.8836000013107","NA","Experiment1","yes","1024"
"[A1]","Log.png","Acorn.png","Flower.png","[B1]","BlackBerries.png","Footprints.png","Puddle.png","   ResponsesA  ResponsesB  ResponsesX
0           3           3           3","Diamond.png","3","3","3","    ResponsesA  ResponsesB  ResponsesX
0            3           4           2
1            2           3           2
2            3           4           3
3            3           4           3
4            3           4           3
5            3           4           2
6            4           3           2
7            4           3           2
8            3           4           2
9            4           2           3
10           3           3           3
11           3           3           3
12           3           3           3
13           3           3           3","Empty DataFrame
Columns: [ResponsesA, ResponsesB, ResponsesX]
Index: []","Empty DataFrame
Columns: [ResponsesA, ResponsesB, ResponsesX]
Index: []","[B1]","[X1]","<libopensesame.widgets.widget_factory.Label object at 0x0000023CDA3F5688>","<libopensesame.widgets.widget_factory.Label object at 0x0000023CD7C75EC8>","<libopensesame.widgets.widget_factory.Label object at 0x0000023CD7C758C8>","<libopensesame.widgets.widget_factory.Label object at 0x0000023CD7C75748>","<libopensesame.widgets.widget_factory.Label object at 0x0000023CD7C75E08>","<libopensesame.widgets.widget_factory.Label object at 0x0000023CD7C75AC8>","<libopensesame.widgets.widget_factory.Label object at 0x0000023CD7C75B48>","<libopensesame.widgets.widget_factory.Label object at 0x0000023CD7C75D48>","<libopensesame.widgets.widget_factory.Label object at 0x0000023CDBB618C8>","<libopensesame.widgets.widget_factory.Label object at 0x0000023CDBB61C08>","<libopensesame.widgets.widget_factory.Label object at 0x0000023CDBB61388>","<libopensesame.widgets.widget_factory.Label object at 0x0000023CDBB61308>","<libopensesame.widgets.widget_factory.Label object at 0x0000023CD7C75688>","<libopensesame.widgets.widget_factory.Label object at 0x0000023CD7C75F88>","<libopensesame.widgets.widget_factory.Label object at 0x0000023CD7C75348>","<libopensesame.widgets.widget_factory.Label object at 0x0000023CD7C75248>","14","[X1]","Feather.png","Mouse.png","Beetle.png","#f1f1f1","0","1","2","psycho","psycho","psycho","0","uniform","13","13","13","NA","NA","NA","NA","NA","NA","0","0","0","0","NA","0","0","0","0","0","0","0","NA","13","NA","NA","NA","NA","NA","0","NA","Mon Jan 18 17:21:50 2021","The main experiment item","yes","","Experiment1.osexp","C:\Users\Sanne\Dropbox\MasterProject\Experiments","no","mono","no","18","no","#000000","no","Next","no","768","3","3","psycho","3","13","13","0","[[0, 0], [0, 1], [0, 2], [0, 3], [0, 4], [0, 5], [0, 6], [0, 7], [0, 8], [0, 9], [0, 10], [0, 11], [0, 12], [0, 13], [2, 0], [2, 1], [2, 2], [2, 3], [2, 4], [2, 5], [2, 6], [2, 7], [2, 8], [2, 9], [2, 10], [2, 11], [2, 12], [2, 13]]","C:/Users/Sanne/Dropbox/MasterProject/Experiments/subj/subject-1.csv","psycho","Lentiform Loewenfeld","3.3.6","[2, 3]","2","3","[0, 7]","0","7","0","NA","NA","NA","NA","NA","NA","NA","NA","2","4","4","psycho","1024","2","48000","-16","experiment","1","odd","[[0, 0], [0, 1], [0, 2], [0, 3], [0, 4], [0, 5], [0, 6], [0, 7], [0, 8], [0, 9], [0, 10], [0, 11], [0, 12], [0, 13]]","67961.23160000207","67961.17120000054","67961.21630000198","NA","NA","NA","NA","NA","NA","1974.7930000012275","NA","2655.891700000211","1978.7024000033853","NA","NA","NA","3607.508000000962","NA","NA","1974.5411000003514","3607.4532000020554","NA","67961.24880000207","NA","NA","NA","NA","NA","3606.8836000013107","NA","Experiment1","yes","1024"
"[A1]","Log.png","Acorn.png","Flower.png","[B1]","BlackBerries.png","Footprints.png","Puddle.png","   ResponsesA  ResponsesB  ResponsesX
0           4           4           4","Diamond.png","4","4","4","    ResponsesA  ResponsesB  ResponsesX
0            3           4           2
1            2           3           2
2            3           4           3
3            3           4           3
4            3           4           3
5            3           4           2
6            4           3           2
7            4           3           2
8            3           4           2
9            4           2           3
10           3           3           3
11           3           3           3
12           3           3           3
13           3           3           3
14           4           4           4","Empty DataFrame
Columns: [ResponsesA, ResponsesB, ResponsesX]
Index: []","Empty DataFrame
Columns: [ResponsesA, ResponsesB, ResponsesX]
Index: []","[A1]","[X1]","<libopensesame.widgets.widget_factory.Label object at 0x0000023CDC6FDC48>","<libopensesame.widgets.widget_factory.Label object at 0x0000023CD8981C88>","<libopensesame.widgets.widget_factory.Label object at 0x0000023CD8981188>","<libopensesame.widgets.widget_factory.Label object at 0x0000023CD8981088>","<libopensesame.widgets.widget_factory.Label object at 0x0000023CD89810C8>","<libopensesame.widgets.widget_factory.Label object at 0x0000023CD8981408>","<libopensesame.widgets.widget_factory.Label object at 0x0000023CD89811C8>","<libopensesame.widgets.widget_factory.Label object at 0x0000023CD8981248>","<libopensesame.widgets.widget_factory.Label object at 0x0000023CDC6FDC08>","<libopensesame.widgets.widget_factory.Label object at 0x0000023CDC6FDDC8>","<libopensesame.widgets.widget_factory.Label object at 0x0000023CDC6FDC88>","<libopensesame.widgets.widget_factory.Label object at 0x0000023CDC6FD9C8>","<libopensesame.widgets.widget_factory.Label object at 0x0000023CD89817C8>","<libopensesame.widgets.widget_factory.Label object at 0x0000023CD89813C8>","<libopensesame.widgets.widget_factory.Label object at 0x0000023CD8981148>","<libopensesame.widgets.widget_factory.Label object at 0x0000023CD8981788>","15","[X1]","Feather.png","Mouse.png","Beetle.png","#f1f1f1","0","1","2","psycho","psycho","psycho","0","uniform","14","14","14","NA","NA","NA","NA","NA","NA","0","0","0","0","NA","0","0","0","0","0","0","0","NA","14","NA","NA","NA","NA","NA","0","NA","Mon Jan 18 17:21:50 2021","The main experiment item","yes","","Experiment1.osexp","C:\Users\Sanne\Dropbox\MasterProject\Experiments","no","mono","no","18","no","#000000","no","Next","no","768","3","3","psycho","3","14","14","0","[[0, 0], [0, 1], [0, 2], [0, 3], [0, 4], [0, 5], [0, 6], [0, 7], [0, 8], [0, 9], [0, 10], [0, 11], [0, 12], [0, 13], [2, 0], [2, 1], [2, 2], [2, 3], [2, 4], [2, 5], [2, 6], [2, 7], [2, 8], [2, 9], [2, 10], [2, 11], [2, 12], [2, 13]]","C:/Users/Sanne/Dropbox/MasterProject/Experiments/subj/subject-1.csv","psycho","Lentiform Loewenfeld","3.3.6","[0, 5]","0","5","[2, 6]","2","6","0","NA","NA","NA","NA","NA","NA","NA","NA","2","4","4","psycho","1024","2","48000","-16","experiment","1","odd","[[2, 0], [2, 1], [2, 2], [2, 3], [2, 4], [2, 5], [2, 6], [2, 7], [2, 8], [2, 9], [2, 10], [2, 11], [2, 12], [2, 13]]","73332.4984000028","73332.37000000008","73332.48130000356","NA","NA","NA","NA","NA","NA","1974.7930000012275","NA","2655.891700000211","1978.7024000033853","NA","NA","NA","3607.508000000962","NA","NA","1974.5411000003514","3607.4532000020554","NA","73332.51150000069","NA","NA","NA","NA","NA","3606.8836000013107","NA","Experiment1","yes","1024"
"[A1]","Log.png","Acorn.png","Flower.png","[B1]","BlackBerries.png","Footprints.png","Puddle.png","   ResponsesA  ResponsesB  ResponsesX
0           3           3           3","NoDiamond.png","3","3","3","    ResponsesA  ResponsesB  ResponsesX
0            3           4           2
1            2           3           2
2            3           4           3
3            3           4           3
4            3           4           3
5            3           4           2
6            4           3           2
7            4           3           2
8            3           4           2
9            4           2           3
10           3           3           3
11           3           3           3
12           3           3           3
13           3           3           3
14           4           4           4
15           3           3           3","Empty DataFrame
Columns: [ResponsesA, ResponsesB, ResponsesX]
Index: []","Empty DataFrame
Columns: [ResponsesA, ResponsesB, ResponsesX]
Index: []","[B1]","[X1]","<libopensesame.widgets.widget_factory.Label object at 0x0000023CD8325E48>","<libopensesame.widgets.widget_factory.Label object at 0x0000023CDC6FD608>","<libopensesame.widgets.widget_factory.Label object at 0x0000023CDC6FD0C8>","<libopensesame.widgets.widget_factory.Label object at 0x0000023CDC6FD748>","<libopensesame.widgets.widget_factory.Label object at 0x0000023CDC6FD288>","<libopensesame.widgets.widget_factory.Label object at 0x0000023CDC6FD1C8>","<libopensesame.widgets.widget_factory.Label object at 0x0000023CDC6FD9C8>","<libopensesame.widgets.widget_factory.Label object at 0x0000023CDC6FD788>","<libopensesame.widgets.widget_factory.Label object at 0x0000023CDFBFDA88>","<libopensesame.widgets.widget_factory.Label object at 0x0000023CDFBFD148>","<libopensesame.widgets.widget_factory.Label object at 0x0000023CDFBFD588>","<libopensesame.widgets.widget_factory.Label object at 0x0000023CDFBFDB88>","<libopensesame.widgets.widget_factory.Label object at 0x0000023CDBB61548>","<libopensesame.widgets.widget_factory.Label object at 0x0000023CDBB61B48>","<libopensesame.widgets.widget_factory.Label object at 0x0000023CDBB61E88>","<libopensesame.widgets.widget_factory.Label object at 0x0000023CDC6FDD88>","16","[X1]","Feather.png","Mouse.png","Beetle.png","#f1f1f1","0","1","2","psycho","psycho","psycho","0","uniform","15","15","15","NA","NA","NA","NA","NA","NA","0","0","0","0","NA","0","0","0","0","0","0","0","NA","15","NA","NA","NA","NA","NA","0","NA","Mon Jan 18 17:21:50 2021","The main experiment item","yes","","Experiment1.osexp","C:\Users\Sanne\Dropbox\MasterProject\Experiments","no","mono","no","18","no","#000000","no","Next","no","768","4","4","psycho","4","15","15","0","[[0, 0], [0, 1], [0, 2], [0, 3], [0, 4], [0, 5], [0, 6], [0, 7], [0, 8], [0, 9], [0, 10], [0, 11], [0, 12], [0, 13], [2, 0], [2, 1], [2, 2], [2, 3], [2, 4], [2, 5], [2, 6], [2, 7], [2, 8], [2, 9], [2, 10], [2, 11], [2, 12], [2, 13]]","C:/Users/Sanne/Dropbox/MasterProject/Experiments/subj/subject-1.csv","psycho","Lentiform Loewenfeld","3.3.6","[0, 6]","0","6","[2, 9]","2","9","0","NA","NA","NA","NA","NA","NA","NA","NA","2","4","4","psycho","1024","2","48000","-16","experiment","1","odd","[[2, 0], [2, 1], [2, 2], [2, 3], [2, 4], [2, 5], [2, 6], [2, 7], [2, 8], [2, 9], [2, 10], [2, 11], [2, 12], [2, 13]]","77574.5938","77574.51490000312","77574.57590000195","NA","NA","NA","NA","NA","NA","1974.7930000012275","NA","2655.891700000211","1978.7024000033853","NA","NA","NA","3607.508000000962","NA","NA","1974.5411000003514","3607.4532000020554","NA","77574.6089000022","NA","NA","NA","NA","NA","3606.8836000013107","NA","Experiment1","yes","1024"
"[A2]","Log.png","Acorn.png","Flower.png","[B2]","BlackBerries.png","Footprints.png","Puddle.png","   ResponsesA  ResponsesB  ResponsesX
0           3           3           3","Diamond.png","3","3","3","    ResponsesA  ResponsesB  ResponsesX
0            3           4           2
1            2           3           2
2            3           4           3
3            3           4           3
4            3           4           3
5            3           4           2
6            4           3           2
7            4           3           2
8            3           4           2
9            4           2           3
10           3           3           3
11           3           3           3
12           3           3           3
13           3           3           3
14           4           4           4
15           3           3           3","   ResponsesA  ResponsesB  ResponsesX
0           3           3           3","Empty DataFrame
Columns: [ResponsesA, ResponsesB, ResponsesX]
Index: []","[A2]","[X2]","<libopensesame.widgets.widget_factory.Label object at 0x0000023CD78ADAC8>","<libopensesame.widgets.widget_factory.Label object at 0x0000023CD8766148>","<libopensesame.widgets.widget_factory.Label object at 0x0000023CD8766108>","<libopensesame.widgets.widget_factory.Label object at 0x0000023CD8325988>","<libopensesame.widgets.widget_factory.Label object at 0x0000023CD8325848>","<libopensesame.widgets.widget_factory.Label object at 0x0000023CDBD01708>","<libopensesame.widgets.widget_factory.Label object at 0x0000023CDBD01888>","<libopensesame.widgets.widget_factory.Label object at 0x0000023CDBD01608>","<libopensesame.widgets.widget_factory.Label object at 0x0000023CD78AD6C8>","<libopensesame.widgets.widget_factory.Label object at 0x0000023CD78ADE48>","<libopensesame.widgets.widget_factory.Label object at 0x0000023CD78ADC88>","<libopensesame.widgets.widget_factory.Label object at 0x0000023CD8766348>","<libopensesame.widgets.widget_factory.Label object at 0x0000023CD87660C8>","<libopensesame.widgets.widget_factory.Label object at 0x0000023CD8766B88>","<libopensesame.widgets.widget_factory.Label object at 0x0000023CD8766EC8>","<libopensesame.widgets.widget_factory.Label object at 0x0000023CD8766988>","1","[X2]","Feather.png","Mouse.png","Beetle.png","#f1f1f1","0","1","2","psycho","psycho","psycho","0","uniform","15","15","15","0","0","0","NA","NA","NA","0","0","0","0","NA","0","0","1","1","1","0","1","NA","15","0","NA","NA","NA","NA","0","NA","Mon Jan 18 17:21:50 2021","The main experiment item","yes","","Experiment1.osexp","C:\Users\Sanne\Dropbox\MasterProject\Experiments","no","mono","no","18","no","#000000","no","Next","no","768","4","4","psycho","4","0","15","1","[[0, 0], [0, 1], [0, 2], [0, 3], [0, 4], [0, 5], [0, 6], [0, 7], [0, 8], [0, 9], [0, 10], [0, 11], [0, 12], [0, 13], [2, 0], [2, 1], [2, 2], [2, 3], [2, 4], [2, 5], [2, 6], [2, 7], [2, 8], [2, 9], [2, 10], [2, 11], [2, 12], [2, 13]]","C:/Users/Sanne/Dropbox/MasterProject/Experiments/subj/subject-1.csv","psycho","Lentiform Loewenfeld","3.3.6","[0, 12]","0","12","[2, 7]","2","7","0","NA","NA","NA","NA","NA","NA","NA","NA","2","4","4","psycho","1024","2","48000","-16","experiment","1","odd","[[2, 0], [2, 1], [2, 2], [2, 3], [2, 4], [2, 5], [2, 6], [2, 7], [2, 8], [2, 9], [2, 10], [2, 11], [2, 12], [2, 13]]","77574.5938","77574.51490000312","77574.57590000195","82306.42010000156","82306.3516000002","82306.4039000019","NA","NA","NA","1974.7930000012275","NA","2655.891700000211","1978.7024000033853","NA","NA","NA","3607.508000000962","77681.75240000346","NA","1974.5411000003514","77681.3957000013","NA","77574.6089000022","82306.43420000342","NA","NA","NA","NA","3606.8836000013107","NA","Experiment1","yes","1024"
"[A2]","Log.png","Acorn.png","Flower.png","[B2]","BlackBerries.png","Footprints.png","Puddle.png","   ResponsesA  ResponsesB  ResponsesX
0           3           3           3","NoDiamond.png","3","3","3","    ResponsesA  ResponsesB  ResponsesX
0            3           4           2
1            2           3           2
2            3           4           3
3            3           4           3
4            3           4           3
5            3           4           2
6            4           3           2
7            4           3           2
8            3           4           2
9            4           2           3
10           3           3           3
11           3           3           3
12           3           3           3
13           3           3           3
14           4           4           4
15           3           3           3","   ResponsesA  ResponsesB  ResponsesX
0           3           3           3
1           3           3           3","Empty DataFrame
Columns: [ResponsesA, ResponsesB, ResponsesX]
Index: []","[B2]","[X2]","<libopensesame.widgets.widget_factory.Label object at 0x0000023CDA414888>","<libopensesame.widgets.widget_factory.Label object at 0x0000023CDBA9C2C8>","<libopensesame.widgets.widget_factory.Label object at 0x0000023CDBA9CB88>","<libopensesame.widgets.widget_factory.Label object at 0x0000023CDBA9CB48>","<libopensesame.widgets.widget_factory.Label object at 0x0000023CDBA9C288>","<libopensesame.widgets.widget_factory.Label object at 0x0000023CDBA9C9C8>","<libopensesame.widgets.widget_factory.Label object at 0x0000023CDBA9CF08>","<libopensesame.widgets.widget_factory.Label object at 0x0000023CDBA9CE08>","<libopensesame.widgets.widget_factory.Label object at 0x0000023CDA414508>","<libopensesame.widgets.widget_factory.Label object at 0x0000023CD78B6088>","<libopensesame.widgets.widget_factory.Label object at 0x0000023CD78B6DC8>","<libopensesame.widgets.widget_factory.Label object at 0x0000023CD8760C08>","<libopensesame.widgets.widget_factory.Label object at 0x0000023CD87602C8>","<libopensesame.widgets.widget_factory.Label object at 0x0000023CD8760AC8>","<libopensesame.widgets.widget_factory.Label object at 0x0000023CD8760148>","<libopensesame.widgets.widget_factory.Label object at 0x0000023CDBA9C348>","2","[X2]","Feather.png","Mouse.png","Beetle.png","#f1f1f1","0","1","2","psycho","psycho","psycho","0","uniform","15","15","15","1","1","1","NA","NA","NA","0","0","0","0","NA","0","0","1","1","1","0","1","NA","15","1","NA","NA","NA","NA","0","NA","Mon Jan 18 17:21:50 2021","The main experiment item","yes","","Experiment1.osexp","C:\Users\Sanne\Dropbox\MasterProject\Experiments","no","mono","no","18","no","#000000","no","Next","no","768","3","3","psycho","3","1","15","1","[[0, 0], [0, 1], [0, 2], [0, 3], [0, 4], [0, 5], [0, 6], [0, 7], [0, 8], [0, 9], [0, 10], [0, 11], [0, 12], [0, 13], [2, 0], [2, 1], [2, 2], [2, 3], [2, 4], [2, 5], [2, 6], [2, 7], [2, 8], [2, 9], [2, 10], [2, 11], [2, 12], [2, 13]]","C:/Users/Sanne/Dropbox/MasterProject/Experiments/subj/subject-1.csv","psycho","Lentiform Loewenfeld","3.3.6","[2, 6]","2","6","[0, 10]","0","10","0","NA","NA","NA","NA","NA","NA","NA","NA","2","4","4","psycho","1024","2","48000","-16","experiment","1","odd","[[0, 0], [0, 1], [0, 2], [0, 3], [0, 4], [0, 5], [0, 6], [0, 7], [0, 8], [0, 9], [0, 10], [0, 11], [0, 12], [0, 13]]","77574.5938","77574.51490000312","77574.57590000195","86910.30210000099","86910.23940000014","86910.28660000302","NA","NA","NA","1974.7930000012275","NA","2655.891700000211","1978.7024000033853","NA","NA","NA","3607.508000000962","77681.75240000346","NA","1974.5411000003514","77681.3957000013","NA","77574.6089000022","86910.31520000251","NA","NA","NA","NA","3606.8836000013107","NA","Experiment1","yes","1024"
"[A2]","Log.png","Acorn.png","Flower.png","[B2]","BlackBerries.png","Footprints.png","Puddle.png","   ResponsesA  ResponsesB  ResponsesX
0           3           2           2","Diamond.png","3","2","2","    ResponsesA  ResponsesB  ResponsesX
0            3           4           2
1            2           3           2
2            3           4           3
3            3           4           3
4            3           4           3
5            3           4           2
6            4           3           2
7            4           3           2
8            3           4           2
9            4           2           3
10           3           3           3
11           3           3           3
12           3           3           3
13           3           3           3
14           4           4           4
15           3           3           3","   ResponsesA  ResponsesB  ResponsesX
0           3           3           3
1           3           3           3
2           3           2           2","Empty DataFrame
Columns: [ResponsesA, ResponsesB, ResponsesX]
Index: []","[B2]","[X2]","<libopensesame.widgets.widget_factory.Label object at 0x0000023CDBCF4AC8>","<libopensesame.widgets.widget_factory.Label object at 0x0000023CD87687C8>","<libopensesame.widgets.widget_factory.Label object at 0x0000023CD8768048>","<libopensesame.widgets.widget_factory.Label object at 0x0000023CD8768288>","<libopensesame.widgets.widget_factory.Label object at 0x0000023CD7C85808>","<libopensesame.widgets.widget_factory.Label object at 0x0000023CDBD5F248>","<libopensesame.widgets.widget_factory.Label object at 0x0000023CDBD5F688>","<libopensesame.widgets.widget_factory.Label object at 0x0000023CDBD5F888>","<libopensesame.widgets.widget_factory.Label object at 0x0000023CDBCF4148>","<libopensesame.widgets.widget_factory.Label object at 0x0000023CDA2B19C8>","<libopensesame.widgets.widget_factory.Label object at 0x0000023CDA2B1688>","<libopensesame.widgets.widget_factory.Label object at 0x0000023CDA2B1A88>","<libopensesame.widgets.widget_factory.Label object at 0x0000023CD8768DC8>","<libopensesame.widgets.widget_factory.Label object at 0x0000023CD8768188>","<libopensesame.widgets.widget_factory.Label object at 0x0000023CD8768E08>","<libopensesame.widgets.widget_factory.Label object at 0x0000023CD8768EC8>","3","[X2]","Feather.png","Mouse.png","Beetle.png","#f1f1f1","0","1","2","psycho","psycho","psycho","0","uniform","15","15","15","2","2","2","NA","NA","NA","0","0","0","0","NA","0","0","1","1","1","0","1","NA","15","2","NA","NA","NA","NA","0","NA","Mon Jan 18 17:21:50 2021","The main experiment item","yes","","Experiment1.osexp","C:\Users\Sanne\Dropbox\MasterProject\Experiments","no","mono","no","18","no","#000000","no","Next","no","768","3","3","psycho","3","2","15","1","[[0, 0], [0, 1], [0, 2], [0, 3], [0, 4], [0, 5], [0, 6], [0, 7], [0, 8], [0, 9], [0, 10], [0, 11], [0, 12], [0, 13], [2, 0], [2, 1], [2, 2], [2, 3], [2, 4], [2, 5], [2, 6], [2, 7], [2, 8], [2, 9], [2, 10], [2, 11], [2, 12], [2, 13]]","C:/Users/Sanne/Dropbox/MasterProject/Experiments/subj/subject-1.csv","psycho","Lentiform Loewenfeld","3.3.6","[2, 12]","2","12","[0, 6]","0","6","0","NA","NA","NA","NA","NA","NA","NA","NA","2","4","4","psycho","1024","2","48000","-16","experiment","1","odd","[[0, 0], [0, 1], [0, 2], [0, 3], [0, 4], [0, 5], [0, 6], [0, 7], [0, 8], [0, 9], [0, 10], [0, 11], [0, 12], [0, 13]]","77574.5938","77574.51490000312","77574.57590000195","93015.19020000342","93015.1238000035","93015.17490000333","NA","NA","NA","1974.7930000012275","NA","2655.891700000211","1978.7024000033853","NA","NA","NA","3607.508000000962","77681.75240000346","NA","1974.5411000003514","77681.3957000013","NA","77574.6089000022","93015.20350000283","NA","NA","NA","NA","3606.8836000013107","NA","Experiment1","yes","1024"
"[A2]","Log.png","Acorn.png","Flower.png","[B2]","BlackBerries.png","Footprints.png","Puddle.png","   ResponsesA  ResponsesB  ResponsesX
0           4           4           4","Diamond.png","4","4","4","    ResponsesA  ResponsesB  ResponsesX
0            3           4           2
1            2           3           2
2            3           4           3
3            3           4           3
4            3           4           3
5            3           4           2
6            4           3           2
7            4           3           2
8            3           4           2
9            4           2           3
10           3           3           3
11           3           3           3
12           3           3           3
13           3           3           3
14           4           4           4
15           3           3           3","   ResponsesA  ResponsesB  ResponsesX
0           3           3           3
1           3           3           3
2           3           2           2
3           4           4           4","Empty DataFrame
Columns: [ResponsesA, ResponsesB, ResponsesX]
Index: []","[A2]","[X2]","<libopensesame.widgets.widget_factory.Label object at 0x0000023CDBD61EC8>","<libopensesame.widgets.widget_factory.Label object at 0x0000023CDBAEEB88>","<libopensesame.widgets.widget_factory.Label object at 0x0000023CDBAEEBC8>","<libopensesame.widgets.widget_factory.Label object at 0x0000023CE413C248>","<libopensesame.widgets.widget_factory.Label object at 0x0000023CD8325D88>","<libopensesame.widgets.widget_factory.Label object at 0x0000023CD83251C8>","<libopensesame.widgets.widget_factory.Label object at 0x0000023CD8325588>","<libopensesame.widgets.widget_factory.Label object at 0x0000023CD8325948>","<libopensesame.widgets.widget_factory.Label object at 0x0000023CDBD61C48>","<libopensesame.widgets.widget_factory.Label object at 0x0000023CDBD01888>","<libopensesame.widgets.widget_factory.Label object at 0x0000023CDBB84408>","<libopensesame.widgets.widget_factory.Label object at 0x0000023CDBB84588>","<libopensesame.widgets.widget_factory.Label object at 0x0000023CDBAEED48>","<libopensesame.widgets.widget_factory.Label object at 0x0000023CDBAEEFC8>","<libopensesame.widgets.widget_factory.Label object at 0x0000023CDBAEE9C8>","<libopensesame.widgets.widget_factory.Label object at 0x0000023CDBAEE3C8>","4","[X2]","Feather.png","Mouse.png","Beetle.png","#f1f1f1","0","1","2","psycho","psycho","psycho","0","uniform","15","15","15","3","3","3","NA","NA","NA","0","0","0","0","NA","0","0","1","1","1","0","1","NA","15","3","NA","NA","NA","NA","0","NA","Mon Jan 18 17:21:50 2021","The main experiment item","yes","","Experiment1.osexp","C:\Users\Sanne\Dropbox\MasterProject\Experiments","no","mono","no","18","no","#000000","no","Next","no","768","3","2","psycho","2","3","15","1","[[0, 0], [0, 1], [0, 2], [0, 3], [0, 4], [0, 5], [0, 6], [0, 7], [0, 8], [0, 9], [0, 10], [0, 11], [0, 12], [0, 13], [2, 0], [2, 1], [2, 2], [2, 3], [2, 4], [2, 5], [2, 6], [2, 7], [2, 8], [2, 9], [2, 10], [2, 11], [2, 12], [2, 13]]","C:/Users/Sanne/Dropbox/MasterProject/Experiments/subj/subject-1.csv","psycho","Lentiform Loewenfeld","3.3.6","[0, 7]","0","7","[2, 9]","2","9","0","NA","NA","NA","NA","NA","NA","NA","NA","2","4","4","psycho","1024","2","48000","-16","experiment","1","odd","[[2, 0], [2, 1], [2, 2], [2, 3], [2, 4], [2, 5], [2, 6], [2, 7], [2, 8], [2, 9], [2, 10], [2, 11], [2, 12], [2, 13]]","77574.5938","77574.51490000312","77574.57590000195","97168.00680000233","97167.94830000072","97167.99130000072","NA","NA","NA","1974.7930000012275","NA","2655.891700000211","1978.7024000033853","NA","NA","NA","3607.508000000962","77681.75240000346","NA","1974.5411000003514","77681.3957000013","NA","77574.6089000022","97168.01990000022","NA","NA","NA","NA","3606.8836000013107","NA","Experiment1","yes","1024"
"[A2]","Log.png","Acorn.png","Flower.png","[B2]","BlackBerries.png","Footprints.png","Puddle.png","   ResponsesA  ResponsesB  ResponsesX
0           3           3           3","NoDiamond.png","3","3","3","    ResponsesA  ResponsesB  ResponsesX
0            3           4           2
1            2           3           2
2            3           4           3
3            3           4           3
4            3           4           3
5            3           4           2
6            4           3           2
7            4           3           2
8            3           4           2
9            4           2           3
10           3           3           3
11           3           3           3
12           3           3           3
13           3           3           3
14           4           4           4
15           3           3           3","   ResponsesA  ResponsesB  ResponsesX
0           3           3           3
1           3           3           3
2           3           2           2
3           4           4           4
4           3           3           3","Empty DataFrame
Columns: [ResponsesA, ResponsesB, ResponsesX]
Index: []","[A2]","[X2]","<libopensesame.widgets.widget_factory.Label object at 0x0000023CDBD61708>","<libopensesame.widgets.widget_factory.Label object at 0x0000023CDBAF7BC8>","<libopensesame.widgets.widget_factory.Label object at 0x0000023CDBAF7188>","<libopensesame.widgets.widget_factory.Label object at 0x0000023CDBAF7988>","<libopensesame.widgets.widget_factory.Label object at 0x0000023CDBAF7348>","<libopensesame.widgets.widget_factory.Label object at 0x0000023CE392E788>","<libopensesame.widgets.widget_factory.Label object at 0x0000023CE392E488>","<libopensesame.widgets.widget_factory.Label object at 0x0000023CE392E6C8>","<libopensesame.widgets.widget_factory.Label object at 0x0000023CDBD61C08>","<libopensesame.widgets.widget_factory.Label object at 0x0000023CDBA90CC8>","<libopensesame.widgets.widget_factory.Label object at 0x0000023CD72C01C8>","<libopensesame.widgets.widget_factory.Label object at 0x0000023CD72C0288>","<libopensesame.widgets.widget_factory.Label object at 0x0000023CD72C0E08>","<libopensesame.widgets.widget_factory.Label object at 0x0000023CD72C0B88>","<libopensesame.widgets.widget_factory.Label object at 0x0000023CD72C0E88>","<libopensesame.widgets.widget_factory.Label object at 0x0000023CDBAF7448>","5","[X2]","Feather.png","Mouse.png","Beetle.png","#f1f1f1","0","1","2","psycho","psycho","psycho","0","uniform","15","15","15","4","4","4","NA","NA","NA","0","0","0","0","NA","0","0","1","1","1","0","1","NA","15","4","NA","NA","NA","NA","0","NA","Mon Jan 18 17:21:50 2021","The main experiment item","yes","","Experiment1.osexp","C:\Users\Sanne\Dropbox\MasterProject\Experiments","no","mono","no","18","no","#000000","no","Next","no","768","4","4","psycho","4","4","15","1","[[0, 0], [0, 1], [0, 2], [0, 3], [0, 4], [0, 5], [0, 6], [0, 7], [0, 8], [0, 9], [0, 10], [0, 11], [0, 12], [0, 13], [2, 0], [2, 1], [2, 2], [2, 3], [2, 4], [2, 5], [2, 6], [2, 7], [2, 8], [2, 9], [2, 10], [2, 11], [2, 12], [2, 13]]","C:/Users/Sanne/Dropbox/MasterProject/Experiments/subj/subject-1.csv","psycho","Lentiform Loewenfeld","3.3.6","[2, 12]","2","12","[0, 0]","0","0","0","NA","NA","NA","NA","NA","NA","NA","NA","2","4","3","psycho","1024","2","48000","-16","experiment","1","odd","[[0, 0], [0, 1], [0, 2], [0, 3], [0, 4], [0, 5], [0, 6], [0, 7], [0, 8], [0, 9], [0, 10], [0, 11], [0, 12], [0, 13]]","77574.5938","77574.51490000312","77574.57590000195","101522.32320000257","101522.25350000299","101522.3072000008","NA","NA","NA","1974.7930000012275","NA","2655.891700000211","1978.7024000033853","NA","NA","NA","3607.508000000962","77681.75240000346","NA","1974.5411000003514","77681.3957000013","NA","77574.6089000022","101522.33620000334","NA","NA","NA","NA","3606.8836000013107","NA","Experiment1","yes","1024"
"[A2]","Log.png","Acorn.png","Flower.png","[B2]","BlackBerries.png","Footprints.png","Puddle.png","   ResponsesA  ResponsesB  ResponsesX
0           4           4           4","NoDiamond.png","4","4","4","    ResponsesA  ResponsesB  ResponsesX
0            3           4           2
1            2           3           2
2            3           4           3
3            3           4           3
4            3           4           3
5            3           4           2
6            4           3           2
7            4           3           2
8            3           4           2
9            4           2           3
10           3           3           3
11           3           3           3
12           3           3           3
13           3           3           3
14           4           4           4
15           3           3           3","   ResponsesA  ResponsesB  ResponsesX
0           3           3           3
1           3           3           3
2           3           2           2
3           4           4           4
4           3           3           3
5           4           4           4","Empty DataFrame
Columns: [ResponsesA, ResponsesB, ResponsesX]
Index: []","[B2]","[X2]","<libopensesame.widgets.widget_factory.Label object at 0x0000023CD84C1708>","<libopensesame.widgets.widget_factory.Label object at 0x0000023CD84C18C8>","<libopensesame.widgets.widget_factory.Label object at 0x0000023CD84C1B88>","<libopensesame.widgets.widget_factory.Label object at 0x0000023CD84C10C8>","<libopensesame.widgets.widget_factory.Label object at 0x0000023CD84C14C8>","<libopensesame.widgets.widget_factory.Label object at 0x0000023CD84C1048>","<libopensesame.widgets.widget_factory.Label object at 0x0000023CD84C1588>","<libopensesame.widgets.widget_factory.Label object at 0x0000023CD84C1788>","<libopensesame.widgets.widget_factory.Label object at 0x0000023CD84C16C8>","<libopensesame.widgets.widget_factory.Label object at 0x0000023CD84C1A48>","<libopensesame.widgets.widget_factory.Label object at 0x0000023CD84C1608>","<libopensesame.widgets.widget_factory.Label object at 0x0000023CD84C1888>","<libopensesame.widgets.widget_factory.Label object at 0x0000023CD84C1A88>","<libopensesame.widgets.widget_factory.Label object at 0x0000023CD84C1FC8>","<libopensesame.widgets.widget_factory.Label object at 0x0000023CD84C1A08>","<libopensesame.widgets.widget_factory.Label object at 0x0000023CD84C1688>","6","[X2]","Feather.png","Mouse.png","Beetle.png","#f1f1f1","0","1","2","psycho","psycho","psycho","0","uniform","15","15","15","5","5","5","NA","NA","NA","0","0","0","0","NA","0","0","1","1","1","0","1","NA","15","5","NA","NA","NA","NA","0","NA","Mon Jan 18 17:21:50 2021","The main experiment item","yes","","Experiment1.osexp","C:\Users\Sanne\Dropbox\MasterProject\Experiments","no","mono","no","18","no","#000000","no","Next","no","768","3","3","psycho","3","5","15","1","[[0, 0], [0, 1], [0, 2], [0, 3], [0, 4], [0, 5], [0, 6], [0, 7], [0, 8], [0, 9], [0, 10], [0, 11], [0, 12], [0, 13], [2, 0], [2, 1], [2, 2], [2, 3], [2, 4], [2, 5], [2, 6], [2, 7], [2, 8], [2, 9], [2, 10], [2, 11], [2, 12], [2, 13]]","C:/Users/Sanne/Dropbox/MasterProject/Experiments/subj/subject-1.csv","psycho","Lentiform Loewenfeld","3.3.6","[0, 9]","0","9","[2, 1]","2","1","0","NA","NA","NA","NA","NA","NA","NA","NA","2","4","4","psycho","1024","2","48000","-16","experiment","1","odd","[[2, 0], [2, 1], [2, 2], [2, 3], [2, 4], [2, 5], [2, 6], [2, 7], [2, 8], [2, 9], [2, 10], [2, 11], [2, 12], [2, 13]]","77574.5938","77574.51490000312","77574.57590000195","105978.3494000003","105978.27580000012","105978.33310000351","NA","NA","NA","1974.7930000012275","NA","2655.891700000211","1978.7024000033853","NA","NA","NA","3607.508000000962","77681.75240000346","NA","1974.5411000003514","77681.3957000013","NA","77574.6089000022","105978.36300000199","NA","NA","NA","NA","3606.8836000013107","NA","Experiment1","yes","1024"
"[A2]","Log.png","Acorn.png","Flower.png","[B2]","BlackBerries.png","Footprints.png","Puddle.png","   ResponsesA  ResponsesB  ResponsesX
0           4           4           4","Diamond.png","4","4","4","    ResponsesA  ResponsesB  ResponsesX
0            3           4           2
1            2           3           2
2            3           4           3
3            3           4           3
4            3           4           3
5            3           4           2
6            4           3           2
7            4           3           2
8            3           4           2
9            4           2           3
10           3           3           3
11           3           3           3
12           3           3           3
13           3           3           3
14           4           4           4
15           3           3           3","   ResponsesA  ResponsesB  ResponsesX
0           3           3           3
1           3           3           3
2           3           2           2
3           4           4           4
4           3           3           3
5           4           4           4
6           4           4           4","Empty DataFrame
Columns: [ResponsesA, ResponsesB, ResponsesX]
Index: []","[A2]","[X2]","<libopensesame.widgets.widget_factory.Label object at 0x0000023CDA2B1788>","<libopensesame.widgets.widget_factory.Label object at 0x0000023CDA2B1108>","<libopensesame.widgets.widget_factory.Label object at 0x0000023CDA2B1A08>","<libopensesame.widgets.widget_factory.Label object at 0x0000023CDA2B1F48>","<libopensesame.widgets.widget_factory.Label object at 0x0000023CDA3FAEC8>","<libopensesame.widgets.widget_factory.Label object at 0x0000023CDA3FACC8>","<libopensesame.widgets.widget_factory.Label object at 0x0000023CDA195A08>","<libopensesame.widgets.widget_factory.Label object at 0x0000023CDA1953C8>","<libopensesame.widgets.widget_factory.Label object at 0x0000023CDA2B1D48>","<libopensesame.widgets.widget_factory.Label object at 0x0000023CDA2B1B48>","<libopensesame.widgets.widget_factory.Label object at 0x0000023CDA2B1488>","<libopensesame.widgets.widget_factory.Label object at 0x0000023CDA2B16C8>","<libopensesame.widgets.widget_factory.Label object at 0x0000023CDA2B1048>","<libopensesame.widgets.widget_factory.Label object at 0x0000023CDA2B14C8>","<libopensesame.widgets.widget_factory.Label object at 0x0000023CDA2B1908>","<libopensesame.widgets.widget_factory.Label object at 0x0000023CDA2B1508>","7","[X2]","Feather.png","Mouse.png","Beetle.png","#f1f1f1","0","1","2","psycho","psycho","psycho","0","uniform","15","15","15","6","6","6","NA","NA","NA","0","0","0","0","NA","0","0","1","1","1","0","1","NA","15","6","NA","NA","NA","NA","0","NA","Mon Jan 18 17:21:50 2021","The main experiment item","yes","","Experiment1.osexp","C:\Users\Sanne\Dropbox\MasterProject\Experiments","no","mono","no","18","no","#000000","no","Next","no","768","4","4","psycho","4","6","15","1","[[0, 0], [0, 1], [0, 2], [0, 3], [0, 4], [0, 5], [0, 6], [0, 7], [0, 8], [0, 9], [0, 10], [0, 11], [0, 12], [0, 13], [2, 0], [2, 1], [2, 2], [2, 3], [2, 4], [2, 5], [2, 6], [2, 7], [2, 8], [2, 9], [2, 10], [2, 11], [2, 12], [2, 13]]","C:/Users/Sanne/Dropbox/MasterProject/Experiments/subj/subject-1.csv","psycho","Lentiform Loewenfeld","3.3.6","[0, 0]","0","0","[2, 0]","2","0","0","NA","NA","NA","NA","NA","NA","NA","NA","2","3","3","psycho","1024","2","48000","-16","experiment","1","odd","[[2, 0], [2, 1], [2, 2], [2, 3], [2, 4], [2, 5], [2, 6], [2, 7], [2, 8], [2, 9], [2, 10], [2, 11], [2, 12], [2, 13]]","77574.5938","77574.51490000312","77574.57590000195","110446.3330000035","110446.17380000273","110446.31550000122","NA","NA","NA","1974.7930000012275","NA","2655.891700000211","1978.7024000033853","NA","NA","NA","3607.508000000962","77681.75240000346","NA","1974.5411000003514","77681.3957000013","NA","77574.6089000022","110446.34610000139","NA","NA","NA","NA","3606.8836000013107","NA","Experiment1","yes","1024"
"[A2]","Log.png","Acorn.png","Flower.png","[B2]","BlackBerries.png","Footprints.png","Puddle.png","   ResponsesA  ResponsesB  ResponsesX
0           3           3           3","NoDiamond.png","3","3","3","    ResponsesA  ResponsesB  ResponsesX
0            3           4           2
1            2           3           2
2            3           4           3
3            3           4           3
4            3           4           3
5            3           4           2
6            4           3           2
7            4           3           2
8            3           4           2
9            4           2           3
10           3           3           3
11           3           3           3
12           3           3           3
13           3           3           3
14           4           4           4
15           3           3           3","   ResponsesA  ResponsesB  ResponsesX
0           3           3           3
1           3           3           3
2           3           2           2
3           4           4           4
4           3           3           3
5           4           4           4
6           4           4           4
7           3           3           3","Empty DataFrame
Columns: [ResponsesA, ResponsesB, ResponsesX]
Index: []","[B2]","[X2]","<libopensesame.widgets.widget_factory.Label object at 0x0000023CDBD613C8>","<libopensesame.widgets.widget_factory.Label object at 0x0000023CD8B0C388>","<libopensesame.widgets.widget_factory.Label object at 0x0000023CD8B0C188>","<libopensesame.widgets.widget_factory.Label object at 0x0000023CD8B0CFC8>","<libopensesame.widgets.widget_factory.Label object at 0x0000023CD8B0C708>","<libopensesame.widgets.widget_factory.Label object at 0x0000023CD8B0C8C8>","<libopensesame.widgets.widget_factory.Label object at 0x0000023CD8B0C508>","<libopensesame.widgets.widget_factory.Label object at 0x0000023CD8B0CC88>","<libopensesame.widgets.widget_factory.Label object at 0x0000023CDBD617C8>","<libopensesame.widgets.widget_factory.Label object at 0x0000023CDBD61A88>","<libopensesame.widgets.widget_factory.Label object at 0x0000023CDBD61488>","<libopensesame.widgets.widget_factory.Label object at 0x0000023CDBB61388>","<libopensesame.widgets.widget_factory.Label object at 0x0000023CDBB61CC8>","<libopensesame.widgets.widget_factory.Label object at 0x0000023CDBB61448>","<libopensesame.widgets.widget_factory.Label object at 0x0000023CD8B0C308>","<libopensesame.widgets.widget_factory.Label object at 0x0000023CD8B0C288>","8","[X2]","Feather.png","Mouse.png","Beetle.png","#f1f1f1","0","1","2","psycho","psycho","psycho","0","uniform","15","15","15","7","7","7","NA","NA","NA","0","0","0","0","NA","0","0","1","1","1","0","1","NA","15","7","NA","NA","NA","NA","0","NA","Mon Jan 18 17:21:50 2021","The main experiment item","yes","","Experiment1.osexp","C:\Users\Sanne\Dropbox\MasterProject\Experiments","no","mono","no","18","no","#000000","no","Next","no","768","4","4","psycho","4","7","15","1","[[0, 0], [0, 1], [0, 2], [0, 3], [0, 4], [0, 5], [0, 6], [0, 7], [0, 8], [0, 9], [0, 10], [0, 11], [0, 12], [0, 13], [2, 0], [2, 1], [2, 2], [2, 3], [2, 4], [2, 5], [2, 6], [2, 7], [2, 8], [2, 9], [2, 10], [2, 11], [2, 12], [2, 13]]","C:/Users/Sanne/Dropbox/MasterProject/Experiments/subj/subject-1.csv","psycho","Lentiform Loewenfeld","3.3.6","[2, 2]","2","2","[0, 4]","0","4","0","NA","NA","NA","NA","NA","NA","NA","NA","2","4","4","psycho","1024","2","48000","-16","experiment","1","odd","[[0, 0], [0, 1], [0, 2], [0, 3], [0, 4], [0, 5], [0, 6], [0, 7], [0, 8], [0, 9], [0, 10], [0, 11], [0, 12], [0, 13]]","77574.5938","77574.51490000312","77574.57590000195","115116.56270000094","115116.50000000009","115116.54700000145","NA","NA","NA","1974.7930000012275","NA","2655.891700000211","1978.7024000033853","NA","NA","NA","3607.508000000962","77681.75240000346","NA","1974.5411000003514","77681.3957000013","NA","77574.6089000022","115116.57590000323","NA","NA","NA","NA","3606.8836000013107","NA","Experiment1","yes","1024"
"[A2]","Log.png","Acorn.png","Flower.png","[B2]","BlackBerries.png","Footprints.png","Puddle.png","   ResponsesA  ResponsesB  ResponsesX
0           2           2           2","Diamond.png","2","2","2","    ResponsesA  ResponsesB  ResponsesX
0            3           4           2
1            2           3           2
2            3           4           3
3            3           4           3
4            3           4           3
5            3           4           2
6            4           3           2
7            4           3           2
8            3           4           2
9            4           2           3
10           3           3           3
11           3           3           3
12           3           3           3
13           3           3           3
14           4           4           4
15           3           3           3","   ResponsesA  ResponsesB  ResponsesX
0           3           3           3
1           3           3           3
2           3           2           2
3           4           4           4
4           3           3           3
5           4           4           4
6           4           4           4
7           3           3           3
8           2           2           2","Empty DataFrame
Columns: [ResponsesA, ResponsesB, ResponsesX]
Index: []","[B2]","[X2]","<libopensesame.widgets.widget_factory.Label object at 0x0000023CDBD708C8>","<libopensesame.widgets.widget_factory.Label object at 0x0000023CE2D2DA88>","<libopensesame.widgets.widget_factory.Label object at 0x0000023CE2D2D848>","<libopensesame.widgets.widget_factory.Label object at 0x0000023CE2D2DB08>","<libopensesame.widgets.widget_factory.Label object at 0x0000023CE2D2D148>","<libopensesame.widgets.widget_factory.Label object at 0x0000023CE2D2DF88>","<libopensesame.widgets.widget_factory.Label object at 0x0000023CE2D2D308>","<libopensesame.widgets.widget_factory.Label object at 0x0000023CE2D2D488>","<libopensesame.widgets.widget_factory.Label object at 0x0000023CDBD70088>","<libopensesame.widgets.widget_factory.Label object at 0x0000023CDBB61F08>","<libopensesame.widgets.widget_factory.Label object at 0x0000023CD7CEB508>","<libopensesame.widgets.widget_factory.Label object at 0x0000023CD898C088>","<libopensesame.widgets.widget_factory.Label object at 0x0000023CE3A4BAC8>","<libopensesame.widgets.widget_factory.Label object at 0x0000023CE2D2D9C8>","<libopensesame.widgets.widget_factory.Label object at 0x0000023CE2D2D608>","<libopensesame.widgets.widget_factory.Label object at 0x0000023CE2D2DE48>","9","[X2]","Feather.png","Mouse.png","Beetle.png","#f1f1f1","0","1","2","psycho","psycho","psycho","0","uniform","15","15","15","8","8","8","NA","NA","NA","0","0","0","0","NA","0","0","1","1","1","0","1","NA","15","8","NA","NA","NA","NA","0","NA","Mon Jan 18 17:21:50 2021","The main experiment item","yes","","Experiment1.osexp","C:\Users\Sanne\Dropbox\MasterProject\Experiments","no","mono","no","18","no","#000000","no","Next","no","768","3","3","psycho","3","8","15","1","[[0, 0], [0, 1], [0, 2], [0, 3], [0, 4], [0, 5], [0, 6], [0, 7], [0, 8], [0, 9], [0, 10], [0, 11], [0, 12], [0, 13], [2, 0], [2, 1], [2, 2], [2, 3], [2, 4], [2, 5], [2, 6], [2, 7], [2, 8], [2, 9], [2, 10], [2, 11], [2, 12], [2, 13]]","C:/Users/Sanne/Dropbox/MasterProject/Experiments/subj/subject-1.csv","psycho","Lentiform Loewenfeld","3.3.6","[2, 0]","2","0","[0, 10]","0","10","0","NA","NA","NA","NA","NA","NA","NA","NA","2","4","4","psycho","1024","2","48000","-16","experiment","1","odd","[[0, 0], [0, 1], [0, 2], [0, 3], [0, 4], [0, 5], [0, 6], [0, 7], [0, 8], [0, 9], [0, 10], [0, 11], [0, 12], [0, 13]]","77574.5938","77574.51490000312","77574.57590000195","119670.37120000168","119670.30430000159","119670.35460000261","NA","NA","NA","1974.7930000012275","NA","2655.891700000211","1978.7024000033853","NA","NA","NA","3607.508000000962","77681.75240000346","NA","1974.5411000003514","77681.3957000013","NA","77574.6089000022","119670.38530000355","NA","NA","NA","NA","3606.8836000013107","NA","Experiment1","yes","1024"
"[A2]","Log.png","Acorn.png","Flower.png","[B2]","BlackBerries.png","Footprints.png","Puddle.png","   ResponsesA  ResponsesB  ResponsesX
0           3           3           3","Diamond.png","3","3","3","    ResponsesA  ResponsesB  ResponsesX
0            3           4           2
1            2           3           2
2            3           4           3
3            3           4           3
4            3           4           3
5            3           4           2
6            4           3           2
7            4           3           2
8            3           4           2
9            4           2           3
10           3           3           3
11           3           3           3
12           3           3           3
13           3           3           3
14           4           4           4
15           3           3           3","   ResponsesA  ResponsesB  ResponsesX
0           3           3           3
1           3           3           3
2           3           2           2
3           4           4           4
4           3           3           3
5           4           4           4
6           4           4           4
7           3           3           3
8           2           2           2
9           3           3           3","Empty DataFrame
Columns: [ResponsesA, ResponsesB, ResponsesX]
Index: []","[A2]","[X2]","<libopensesame.widgets.widget_factory.Label object at 0x0000023CDD913848>","<libopensesame.widgets.widget_factory.Label object at 0x0000023CD8911688>","<libopensesame.widgets.widget_factory.Label object at 0x0000023CD8911148>","<libopensesame.widgets.widget_factory.Label object at 0x0000023CD8911808>","<libopensesame.widgets.widget_factory.Label object at 0x0000023CD82CEC48>","<libopensesame.widgets.widget_factory.Label object at 0x0000023CD82CE5C8>","<libopensesame.widgets.widget_factory.Label object at 0x0000023CD82CE848>","<libopensesame.widgets.widget_factory.Label object at 0x0000023CD82CE7C8>","<libopensesame.widgets.widget_factory.Label object at 0x0000023CDA195048>","<libopensesame.widgets.widget_factory.Label object at 0x0000023CD898CC48>","<libopensesame.widgets.widget_factory.Label object at 0x0000023CD87CC4C8>","<libopensesame.widgets.widget_factory.Label object at 0x0000023CD87CC588>","<libopensesame.widgets.widget_factory.Label object at 0x0000023CD87CC148>","<libopensesame.widgets.widget_factory.Label object at 0x0000023CD87CC648>","<libopensesame.widgets.widget_factory.Label object at 0x0000023CD87CCFC8>","<libopensesame.widgets.widget_factory.Label object at 0x0000023CD8911508>","10","[X2]","Feather.png","Mouse.png","Beetle.png","#f1f1f1","0","1","2","psycho","psycho","psycho","0","uniform","15","15","15","9","9","9","NA","NA","NA","0","0","0","0","NA","0","0","1","1","1","0","1","NA","15","9","NA","NA","NA","NA","0","NA","Mon Jan 18 17:21:50 2021","The main experiment item","yes","","Experiment1.osexp","C:\Users\Sanne\Dropbox\MasterProject\Experiments","no","mono","no","18","no","#000000","no","Next","no","768","2","2","psycho","2","9","15","1","[[0, 0], [0, 1], [0, 2], [0, 3], [0, 4], [0, 5], [0, 6], [0, 7], [0, 8], [0, 9], [0, 10], [0, 11], [0, 12], [0, 13], [2, 0], [2, 1], [2, 2], [2, 3], [2, 4], [2, 5], [2, 6], [2, 7], [2, 8], [2, 9], [2, 10], [2, 11], [2, 12], [2, 13]]","C:/Users/Sanne/Dropbox/MasterProject/Experiments/subj/subject-1.csv","psycho","Lentiform Loewenfeld","3.3.6","[2, 13]","2","13","[0, 7]","0","7","0","NA","NA","NA","NA","NA","NA","NA","NA","2","4","4","psycho","1024","2","48000","-16","experiment","1","odd","[[0, 0], [0, 1], [0, 2], [0, 3], [0, 4], [0, 5], [0, 6], [0, 7], [0, 8], [0, 9], [0, 10], [0, 11], [0, 12], [0, 13]]","77574.5938","77574.51490000312","77574.57590000195","124291.78130000219","124291.6836000004","124291.76450000159","NA","NA","NA","1974.7930000012275","NA","2655.891700000211","1978.7024000033853","NA","NA","NA","3607.508000000962","77681.75240000346","NA","1974.5411000003514","77681.3957000013","NA","77574.6089000022","124291.79510000176","NA","NA","NA","NA","3606.8836000013107","NA","Experiment1","yes","1024"
"[A2]","Log.png","Acorn.png","Flower.png","[B2]","BlackBerries.png","Footprints.png","Puddle.png","   ResponsesA  ResponsesB  ResponsesX
0           4           4           4","NoDiamond.png","4","4","4","    ResponsesA  ResponsesB  ResponsesX
0            3           4           2
1            2           3           2
2            3           4           3
3            3           4           3
4            3           4           3
5            3           4           2
6            4           3           2
7            4           3           2
8            3           4           2
9            4           2           3
10           3           3           3
11           3           3           3
12           3           3           3
13           3           3           3
14           4           4           4
15           3           3           3","    ResponsesA  ResponsesB  ResponsesX
0            3           3           3
1            3           3           3
2            3           2           2
3            4           4           4
4            3           3           3
5            4           4           4
6            4           4           4
7            3           3           3
8            2           2           2
9            3           3           3
10           4           4           4","Empty DataFrame
Columns: [ResponsesA, ResponsesB, ResponsesX]
Index: []","[B2]","[X2]","<libopensesame.widgets.widget_factory.Label object at 0x0000023CDBB61CC8>","<libopensesame.widgets.widget_factory.Label object at 0x0000023CDBD59408>","<libopensesame.widgets.widget_factory.Label object at 0x0000023CDBD59FC8>","<libopensesame.widgets.widget_factory.Label object at 0x0000023CDBD59848>","<libopensesame.widgets.widget_factory.Label object at 0x0000023CDBD599C8>","<libopensesame.widgets.widget_factory.Label object at 0x0000023CDBD590C8>","<libopensesame.widgets.widget_factory.Label object at 0x0000023CDBD59448>","<libopensesame.widgets.widget_factory.Label object at 0x0000023CDBD597C8>","<libopensesame.widgets.widget_factory.Label object at 0x0000023CDBB61588>","<libopensesame.widgets.widget_factory.Label object at 0x0000023CDBB61C48>","<libopensesame.widgets.widget_factory.Label object at 0x0000023CD8911508>","<libopensesame.widgets.widget_factory.Label object at 0x0000023CD8911588>","<libopensesame.widgets.widget_factory.Label object at 0x0000023CD78ADF08>","<libopensesame.widgets.widget_factory.Label object at 0x0000023CD78ADE08>","<libopensesame.widgets.widget_factory.Label object at 0x0000023CD78AD408>","<libopensesame.widgets.widget_factory.Label object at 0x0000023CD78AD348>","11","[X2]","Feather.png","Mouse.png","Beetle.png","#f1f1f1","0","1","2","psycho","psycho","psycho","0","uniform","15","15","15","10","10","10","NA","NA","NA","0","0","0","0","NA","0","0","1","1","1","0","1","NA","15","10","NA","NA","NA","NA","0","NA","Mon Jan 18 17:21:50 2021","The main experiment item","yes","","Experiment1.osexp","C:\Users\Sanne\Dropbox\MasterProject\Experiments","no","mono","no","18","no","#000000","no","Next","no","768","3","3","psycho","3","10","15","1","[[0, 0], [0, 1], [0, 2], [0, 3], [0, 4], [0, 5], [0, 6], [0, 7], [0, 8], [0, 9], [0, 10], [0, 11], [0, 12], [0, 13], [2, 0], [2, 1], [2, 2], [2, 3], [2, 4], [2, 5], [2, 6], [2, 7], [2, 8], [2, 9], [2, 10], [2, 11], [2, 12], [2, 13]]","C:/Users/Sanne/Dropbox/MasterProject/Experiments/subj/subject-1.csv","psycho","Lentiform Loewenfeld","3.3.6","[0, 10]","0","10","[2, 6]","2","6","0","NA","NA","NA","NA","NA","NA","NA","NA","2","4","4","psycho","1024","2","48000","-16","experiment","1","odd","[[2, 0], [2, 1], [2, 2], [2, 3], [2, 4], [2, 5], [2, 6], [2, 7], [2, 8], [2, 9], [2, 10], [2, 11], [2, 12], [2, 13]]","77574.5938","77574.51490000312","77574.57590000195","128961.32730000318","128961.2558000008","128961.3102000003","NA","NA","NA","1974.7930000012275","NA","2655.891700000211","1978.7024000033853","NA","NA","NA","3607.508000000962","77681.75240000346","NA","1974.5411000003514","77681.3957000013","NA","77574.6089000022","128961.34150000216","NA","NA","NA","NA","3606.8836000013107","NA","Experiment1","yes","1024"
